timestamp,ref_timestamp,ref_lat,ref_lon,surface_bottom_timestamp,x,y,z,delta_xy[0],delta_xy[1],delta_z,vx,vy,vz,delta_vxy[0],delta_vxy[1],delta_vz,ax,ay,az,yaw,ref_alt,dist_bottom,dist_bottom_rate,eph,epv,estimator_type,xy_valid,z_valid,v_xy_valid,v_z_valid,xy_reset_counter,z_reset_counter,vxy_reset_counter,vz_reset_counter,xy_global,z_global,dist_bottom_valid
327015095,13251241,45.2203776,-93.1453969,327015177,24.829,4.48361,-1.44106,0.000599753,-0.00102212,0.0,-0.0779695,-0.0055951,0.0110656,-0.0598797,-0.00528227,0.271893,0.0,0.0,0.0,-0.836432,275.921,0.107414,-0.0110656,0.5023,0.245813,0,1,1,1,1,1,0,1,1,1,1,0
327230731,13251241,45.2203776,-93.1453969,327230849,24.8314,4.48982,-1.431,0.000599753,-0.00102212,0.0,-0.0745231,-0.0105835,0.0230216,-0.0598797,-0.00528227,0.271893,0.0,0.0,0.0,-0.840492,275.921,0.110127,-0.0230216,0.49632,0.244996,0,1,1,1,1,1,0,1,1,1,1,0
327330674,13251241,45.2203776,-93.1453969,327330759,24.8363,4.49658,-1.42672,0.000599753,-0.00102212,0.0,-0.0721366,-0.00851512,0.0197952,-0.0598797,-0.00528227,0.271893,0.0,0.0,0.0,-0.843161,275.921,0.0990167,-0.0197952,0.48504,0.245154,0,1,1,1,1,1,0,1,1,1,1,0
327432152,13251241,45.2203776,-93.1453969,327432304,24.8424,4.50743,-1.41692,0.000599753,-0.00102212,0.0,-0.0719827,-0.00374548,0.0156194,-0.0598797,-0.00528227,0.271893,0.0,0.0,0.0,-0.845111,275.921,0.114332,-0.0156194,0.498251,0.245327,0,1,1,1,1,1,0,1,1,1,1,0
327536192,13251241,45.2203776,-93.1453969,327536274,24.8513,4.51699,-1.41063,0.000599753,-0.00102212,0.0,-0.0702041,-0.00369503,0.00718798,-0.0598797,-0.00528227,0.271893,0.0,0.0,0.0,-0.845569,275.921,0.107456,-0.00718798,0.485918,0.244797,0,1,1,1,1,1,0,1,1,1,1,0
327637296,13251241,45.2203776,-93.1453969,327637418,24.8589,4.52447,-1.40611,0.000599753,-0.00102212,0.0,-0.0667631,-0.00669389,0.00812743,-0.0598797,-0.00528227,0.271893,0.0,0.0,0.0,-0.845522,275.921,0.104623,-0.00812743,0.500529,0.24552,0,1,1,1,1,1,0,1,1,1,1,0
327736133,13251241,45.2203776,-93.1453969,327736215,24.8539,4.53071,-1.40454,0.000599753,-0.00102212,0.0,-0.0743041,-0.00882811,0.0153924,-0.0598797,-0.00528227,0.271893,0.0,0.0,0.0,-0.847207,275.921,0.0992814,-0.0153924,0.489081,0.245432,0,1,1,1,1,1,0,1,1,1,1,0
327838443,13251241,45.2203776,-93.1453969,327838596,24.8467,4.53486,-1.40319,0.000599753,-0.00102212,0.0,-0.0749046,-0.00600736,0.0169719,-0.0598797,-0.00528227,0.271893,0.0,0.0,0.0,-0.847625,275.921,0.0952358,-0.0169719,0.502017,0.245374,0,1,1,1,1,1,0,1,1,1,1,0
327941857,13251241,45.2203776,-93.1453969,327941951,24.8432,4.53757,-1.40217,0.000599753,-0.00102212,0.0,-0.0724882,-0.00945323,0.0183809,-0.0598797,-0.00528227,0.271893,0.0,0.0,0.0,-0.844327,275.921,0.0940859,-0.0183809,0.488375,0.246233,0,1,1,1,1,1,0,1,1,1,1,0
328042704,13251241,45.2203776,-93.1453969,328042786,24.8389,4.5382,-1.40209,0.000599753,-0.00102212,0.0,-0.0780498,-0.0184629,0.0197694,-0.0598797,-0.00528227,0.271893,0.0,0.0,0.0,-0.842134,275.921,0.0921851,-0.0197694,0.502937,0.246864,0,1,1,1,1,1,0,1,1,1,1,0
328142095,13251241,45.2203776,-93.1453969,328142216,24.8341,4.53911,-1.40136,0.000599753,-0.00102212,0.0,-0.0858175,-0.0237757,0.0205903,-0.0598797,-0.00528227,0.271893,0.0,0.0,0.0,-0.843497,275.921,0.0950557,-0.0205903,0.489542,0.246176,0,1,1,1,1,1,0,1,1,1,1,0
328245754,13251241,45.2203776,-93.1453969,328245839,24.8282,4.5397,-1.39916,0.000599753,-0.00102212,0.0,-0.0880645,-0.0276581,0.0196285,-0.0598797,-0.00528227,0.271893,0.0,0.0,0.0,-0.845916,275.921,0.0988555,-0.0196285,0.503629,0.246589,0,1,1,1,1,1,0,1,1,1,1,0
328347366,13251241,45.2203776,-93.1453969,328347451,24.8229,4.54021,-1.39704,0.000599753,-0.00102212,0.0,-0.0915853,-0.0355822,0.0160231,-0.0598797,-0.00528227,0.271893,0.0,0.0,0.0,-0.847907,275.921,0.0980337,-0.0160231,0.490201,0.245817,0,1,1,1,1,1,0,1,1,1,1,0
328448248,13251241,45.2203776,-93.1453969,328448330,24.816,4.53897,-1.39154,0.000599753,-0.00102212,0.0,-0.101614,-0.0383349,0.014885,-0.0598797,-0.00528227,0.271893,0.0,0.0,0.0,-0.848953,275.921,0.10853,-0.014885,0.503208,0.245767,0,1,1,1,1,1,0,1,1,1,1,0
328548729,13251241,45.2203776,-93.1453969,328548811,24.8173,4.54384,-1.38565,0.000599753,-0.00102212,0.0,-0.101423,-0.0363399,0.0137467,-0.0598797,-0.00528227,0.271893,0.0,0.0,0.0,-0.848121,275.921,0.105878,-0.0137467,0.492824,0.246246,0,1,1,1,1,1,0,1,1,1,1,0
328649747,13251241,45.2203776,-93.1453969,328649828,24.8152,4.5466,-1.38193,0.000599753,-0.00102212,0.0,-0.102063,-0.0408551,0.0164176,-0.0598797,-0.00528227,0.271893,0.0,0.0,0.0,-0.845624,275.921,0.099491,-0.0164176,0.481538,0.246153,0,1,1,1,1,1,0,1,1,1,1,0
328754625,13251241,45.2203776,-93.1453969,328754707,24.8131,4.55325,-1.37879,0.000599753,-0.00102212,0.0,-0.0939827,-0.0500162,0.0189999,-0.0598797,-0.00528227,0.271893,0.0,0.0,0.0,-0.842498,275.921,0.0983593,-0.0189999,0.494767,0.246373,0,1,1,1,1,1,0,1,1,1,1,0
328853737,13251241,45.2203776,-93.1453969,328853819,24.809,4.55585,-1.37314,0.000599753,-0.00102212,0.0,-0.0929816,-0.0380596,0.0304775,-0.0598797,-0.00528227,0.271893,0.0,0.0,0.0,-0.840117,275.921,0.100596,-0.0304775,0.507673,0.24618,0,1,1,1,1,1,0,1,1,1,1,0
328954042,13251241,45.2203776,-93.1453969,328954123,24.8124,4.55378,-1.36685,0.000599753,-0.00102212,0.0,-0.0915058,-0.036677,0.0349608,-0.0598797,-0.00528227,0.271893,0.0,0.0,0.0,-0.838955,275.921,0.096072,-0.0349608,0.494409,0.24563,0,1,1,1,1,1,0,1,1,1,1,0
329055563,13251241,45.2203776,-93.1453969,329055650,24.8151,4.55118,-1.36607,0.000599753,-0.00102212,0.0,-0.0865081,-0.0501343,0.0302173,-0.0598797,-0.00528227,0.271893,0.0,0.0,0.0,-0.838325,275.921,0.0822309,-0.0302173,0.482535,0.245314,0,1,1,1,1,1,0,1,1,1,1,0
329159358,13251241,45.2203776,-93.1453969,329159485,24.8201,4.55804,-1.37127,0.000599753,-0.00102212,0.0,-0.0788358,-0.0486496,-0.000885709,-0.0598797,-0.00528227,0.271893,0.0,0.0,0.0,-0.836992,275.921,0.0815098,0.000885709,0.496777,0.245932,0,1,1,1,1,1,0,1,1,1,1,0
329259394,13251241,45.2203776,-93.1453969,329259476,24.8225,4.56001,-1.37735,0.000599753,-0.00102212,0.0,-0.0351729,-0.0527651,-0.0001683,-0.0598797,-0.00528227,0.271893,0.0,0.0,0.0,-0.827592,275.921,0.0842776,0.0001683,0.508407,0.245167,0,1,1,1,1,1,0,1,1,1,1,0
329360035,13251241,45.2203776,-93.1453969,329360158,24.8286,4.56252,-1.38176,0.000599753,-0.00102212,0.0,-0.00421541,-0.0692027,0.047181,-0.0598797,-0.00528227,0.271893,0.0,0.0,0.0,-0.813945,275.921,0.0865296,-0.047181,0.495902,0.244929,0,1,1,1,1,1,0,1,1,1,1,0
329463444,13251241,45.2203776,-93.1453969,329463526,24.8341,4.56092,-1.38035,0.000599753,-0.00102212,0.0,0.00207912,-0.0741486,0.0805006,-0.0598797,-0.00528227,0.271893,0.0,0.0,0.0,-0.80477,275.921,0.0756446,-0.0805006,0.509188,0.244852,0,1,1,1,1,1,0,1,1,1,1,0
329565046,13251241,45.2203776,-93.1453969,329565128,24.8466,4.56545,-1.37359,0.000599753,-0.00102212,0.0,-0.0196045,-0.0792569,0.140248,-0.0598797,-0.00528227,0.271893,0.0,0.0,0.0,-0.802962,275.921,0.0741876,-0.140248,0.496881,0.244754,0,1,1,1,1,1,0,1,1,1,1,0
329664992,13251241,45.2203776,-93.1453969,329665082,24.8542,4.56615,-1.36487,0.000599753,-0.00102212,0.0,-0.0227909,-0.0894504,0.1333,-0.0598797,-0.00528227,0.271893,0.0,0.0,0.0,-0.805207,275.921,0.0682253,-0.1333,0.484183,0.244202,0,1,1,1,1,1,0,1,1,1,1,0
329768961,13251241,45.2203776,-93.1453969,329769058,24.8545,4.57626,-1.35604,0.000599753,-0.00102212,0.0,-0.00750436,-0.0646746,0.110346,-0.0598797,-0.00528227,0.271893,0.0,0.0,0.0,-0.796906,275.921,0.0693799,-0.110346,0.498697,0.244898,0,1,1,1,1,1,0,1,1,1,1,0
329868904,13251241,45.2203776,-93.1453969,329868989,24.853,4.58396,-1.34582,0.000599753,-0.00102212,0.0,-0.0492248,-0.0105887,0.0891364,-0.0598797,-0.00528227,0.271893,0.0,0.0,0.0,-0.779853,275.921,0.0802569,-0.0891364,0.485818,0.244348,0,1,1,1,1,1,0,1,1,1,1,0
329971044,13251241,45.2203776,-93.1453969,329971172,24.8452,4.59371,-1.33974,0.000599753,-0.00102212,0.0,-0.0999718,-0.0305636,0.037535,-0.0598797,-0.00528227,0.271893,0.0,0.0,0.0,-0.763044,275.921,0.0773104,-0.037535,0.500744,0.245191,0,1,1,1,1,1,0,1,1,1,1,0
330071092,13251241,45.2203776,-93.1453969,330071179,24.8361,4.60029,-1.33849,0.000599753,-0.00102212,0.0,-0.0698726,-0.0377631,0.0187381,-0.0598797,-0.00528227,0.271893,0.0,0.0,0.0,-0.758985,275.921,0.0854025,-0.0187381,0.487708,0.244646,0,1,1,1,1,1,0,1,1,1,1,0
330174575,13251241,45.2203776,-93.1453969,330174657,24.8308,4.61227,-1.34139,0.000599753,-0.00102212,0.0,-0.0734593,-0.000376087,0.0164174,-0.0598797,-0.00528227,0.271893,0.0,0.0,0.0,-0.752422,275.921,0.0891873,-0.0164174,0.500018,0.244366,0,1,1,1,1,1,0,1,1,1,1,0
330276237,13251241,45.2203776,-93.1453969,330276319,24.825,4.6222,-1.34068,0.000599753,-0.00102212,0.0,-0.0805931,-0.0137305,0.0211863,-0.0598797,-0.00528227,0.271893,0.0,0.0,0.0,-0.752992,275.921,0.0990723,-0.0211863,0.486513,0.243696,0,1,1,1,1,1,0,1,1,1,1,0
330374570,13251241,45.2203776,-93.1453969,330374681,24.8292,4.63888,-1.33725,0.000599753,-0.00102212,0.0,-0.071413,-0.00764227,0.0168103,-0.0598797,-0.00528227,0.271893,0.0,0.0,0.0,-0.766005,275.921,0.10013,-0.0168103,0.499307,0.245479,0,1,1,1,1,1,0,1,1,1,1,0
330476467,13251241,45.2203776,-93.1453969,330476607,24.8311,4.64836,-1.33659,0.000599753,-0.00102212,0.0,-0.0516779,-0.0295372,0.0197885,-0.0598797,-0.00528227,0.271893,0.0,0.0,0.0,-0.781911,275.921,0.0969545,-0.0197885,0.511596,0.244957,0,1,1,1,1,1,0,1,1,1,1,0
330580218,13251241,45.2203776,-93.1453969,330580299,24.8437,4.66528,-1.3321,0.000599753,-0.00102212,0.0,-0.0416122,-0.0176294,0.0401936,-0.0598797,-0.00528227,0.271893,0.0,0.0,0.0,-0.780777,275.921,0.103047,-0.0401936,0.500301,0.245352,0,1,1,1,1,1,0,1,1,1,1,0
330680851,13251241,45.2203776,-93.1453969,330680972,24.8503,4.67722,-1.32742,0.000599753,-0.00102212,0.0,-0.0469833,-0.0179609,0.0479613,-0.0598797,-0.00528227,0.271893,0.0,0.0,0.0,-0.766874,275.921,0.091477,-0.0479613,0.488387,0.24353,0,1,1,1,1,1,0,1,1,1,1,0
330780166,13251241,45.2203776,-93.1453969,330780247,24.8515,4.68843,-1.32414,0.000599753,-0.00102212,0.0,-0.0513845,-0.0192785,0.0459154,-0.0598797,-0.00528227,0.271893,0.0,0.0,0.0,-0.749264,275.921,0.0864215,-0.0459154,0.50072,0.245087,0,1,1,1,1,1,0,1,1,1,1,0
330885451,13251241,45.2203776,-93.1453969,330885533,24.8517,4.69787,-1.32245,0.000599753,-0.00102212,0.0,-0.0629067,-0.0249126,0.0303368,-0.0598797,-0.00528227,0.271893,0.0,0.0,0.0,-0.740834,275.921,0.0887783,-0.0303368,0.488388,0.245014,0,1,1,1,1,1,0,1,1,1,1,0
330985815,13251241,45.2203776,-93.1453969,330985897,24.8504,4.70333,-1.32138,0.000599753,-0.00102212,0.0,-0.0743402,-0.0287321,0.0141999,-0.0598797,-0.00528227,0.271893,0.0,0.0,0.0,-0.742532,275.921,0.0934067,-0.0141999,0.502356,0.245413,0,1,1,1,1,1,0,1,1,1,1,0
331085797,13251241,45.2203776,-93.1453969,331085879,24.8483,4.70674,-1.32167,0.000599753,-0.00102212,0.0,-0.0759525,-0.0286815,0.0149206,-0.0598797,-0.00528227,0.271893,0.0,0.0,0.0,-0.746485,275.921,0.0955318,-0.0149206,0.490263,0.243742,0,1,1,1,1,1,0,1,1,1,1,0
331189790,13251241,45.2203776,-93.1453969,331189872,24.8481,4.70805,-1.32205,0.000599753,-0.00102212,0.0,-0.0697935,-0.0345887,0.0226127,-0.0598797,-0.00528227,0.271893,0.0,0.0,0.0,-0.747035,275.921,0.0909294,-0.0226127,0.503438,0.245621,0,1,1,1,1,1,0,1,1,1,1,0
331292164,13251241,45.2203776,-93.1453969,331292245,24.8447,4.70632,-1.32293,0.000599753,-0.00102212,0.0,-0.0652746,-0.0447969,0.025722,-0.0598797,-0.00528227,0.271893,0.0,0.0,0.0,-0.745003,275.921,0.0967121,-0.025722,0.490363,0.243496,0,1,1,1,1,1,0,1,1,1,1,0
331392173,13251241,45.2203776,-93.1453969,331392261,24.8364,4.70154,-1.32022,0.000599753,-0.00102212,0.0,-0.0641449,-0.0458195,0.0308046,-0.0598797,-0.00528227,0.271893,0.0,0.0,0.0,-0.744579,275.921,0.0983479,-0.0308046,0.502213,0.244832,0,1,1,1,1,1,0,1,1,1,1,0
331492165,13251241,45.2203776,-93.1453969,331492307,24.8309,4.69537,-1.31689,0.000599753,-0.00102212,0.0,-0.0585655,-0.0518561,0.0324019,-0.0598797,-0.00528227,0.271893,0.0,0.0,0.0,-0.74525,275.921,0.0972089,-0.0324019,0.490093,0.244864,0,1,1,1,1,1,0,1,1,1,1,0
331592154,13251241,45.2203776,-93.1453969,331592235,24.8275,4.68825,-1.31586,0.000599753,-0.00102212,0.0,-0.0655038,-0.0523831,0.0284647,-0.0598797,-0.00528227,0.271893,0.0,0.0,0.0,-0.744882,275.921,0.0901847,-0.0284647,0.503704,0.245111,0,1,1,1,1,1,0,1,1,1,1,0
331694262,13251241,45.2203776,-93.1453969,331694343,24.8228,4.68629,-1.31587,0.000599753,-0.00102212,0.0,-0.0586341,-0.0546132,0.0278498,-0.0598797,-0.00528227,0.271893,0.0,0.0,0.0,-0.745608,275.921,0.0865685,-0.0278498,0.48974,0.244356,0,1,1,1,1,1,0,1,1,1,1,0
331797734,13251241,45.2203776,-93.1453969,331797827,24.8171,4.68869,-1.31608,0.000599753,-0.00102212,0.0,-0.0613547,-0.0520689,0.0252492,-0.0598797,-0.00528227,0.271893,0.0,0.0,0.0,-0.743785,275.921,0.0903955,-0.0252492,0.502667,0.244324,0,1,1,1,1,1,0,1,1,1,1,0
331897729,13251241,45.2203776,-93.1453969,331897811,24.813,4.6916,-1.31931,0.000599753,-0.00102212,0.0,-0.0673039,-0.0550741,0.0236959,-0.0598797,-0.00528227,0.271893,0.0,0.0,0.0,-0.741095,275.921,0.0834502,-0.0236959,0.490665,0.244348,0,1,1,1,1,1,0,1,1,1,1,0
332002421,13251241,45.2203776,-93.1453969,332002503,24.8093,4.69277,-1.32489,0.000599753,-0.00102212,0.0,-0.0680786,-0.0651326,0.0231948,-0.0598797,-0.00528227,0.271893,0.0,0.0,0.0,-0.740551,275.921,0.0844424,-0.0231948,0.505297,0.24498,0,1,1,1,1,1,0,1,1,1,1,0
332103455,13251241,45.2203776,-93.1453969,332103583,24.8066,4.69169,-1.32354,0.000599753,-0.00102212,0.0,-0.0546309,-0.0835798,0.11004,-0.0598797,-0.00528227,0.271893,0.0,0.0,0.0,-0.740504,275.921,0.0814587,-0.11004,0.49029,0.243781,0,1,1,1,1,1,0,1,1,1,1,0
332204057,13251241,45.2203776,-93.1453969,332204143,24.8065,4.68944,-1.31601,0.000599753,-0.00102212,0.0,-0.0403761,-0.108501,0.129033,-0.0598797,-0.00528227,0.271893,0.0,0.0,0.0,-0.740951,275.921,0.0749761,-0.129033,0.504888,0.244426,0,1,1,1,1,1,0,1,1,1,1,0
332303604,13251241,45.2203776,-93.1453969,332303689,24.8101,4.68715,-1.30803,0.000599753,-0.00102212,0.0,-0.0319912,-0.115832,0.128922,-0.0598797,-0.00528227,0.271893,0.0,0.0,0.0,-0.745549,275.921,0.0680614,-0.128922,0.490902,0.243702,0,1,1,1,1,1,0,1,1,1,1,0
332407454,13251241,45.2203776,-93.1453969,332407535,24.8166,4.68616,-1.29773,0.000599753,-0.00102212,0.0,-0.0223784,-0.116161,0.107526,-0.0598797,-0.00528227,0.271893,0.0,0.0,0.0,-0.752008,275.921,0.0718269,-0.107526,0.505169,0.244215,0,1,1,1,1,1,0,1,1,1,1,0
332507355,13251241,45.2203776,-93.1453969,332507440,24.8239,4.68656,-1.2869,0.000599753,-0.00102212,0.0,-0.0117231,-0.11549,0.100399,-0.0598797,-0.00528227,0.271893,0.0,0.0,0.0,-0.758018,275.921,0.0814127,-0.100399,0.491184,0.245325,0,1,1,1,1,1,0,1,1,1,1,0
332608958,13251241,45.2203776,-93.1453969,332609078,24.8326,4.68697,-1.26879,0.000599753,-0.00102212,0.0,0.00462558,-0.12905,0.112038,-0.0598797,-0.00528227,0.271893,0.0,0.0,0.0,-0.765177,275.921,0.105393,-0.112038,0.505239,0.245763,0,1,1,1,1,1,0,1,1,1,1,0
332708940,13251241,45.2203776,-93.1453969,332709032,24.8391,4.68796,-1.23628,0.000599753,-0.00102212,0.0,0.0205517,-0.122159,0.12543,-0.0598797,-0.00528227,0.271893,0.0,0.0,0.0,-0.771886,275.921,0.134268,-0.12543,0.49189,0.245257,0,1,1,1,1,1,0,1,1,1,1,0
332813792,13251241,45.2203776,-93.1453969,332813877,24.845,4.69094,-1.18038,0.000599753,-0.00102212,0.0,0.0275299,-0.0859928,0.117049,-0.0598797,-0.00528227,0.271893,0.0,0.0,0.0,-0.769206,275.921,0.169957,-0.117049,0.506769,0.246023,0,1,1,1,1,1,0,1,1,1,1,0
332912964,13251241,45.2203776,-93.1453969,332913058,24.8494,4.69917,-1.11503,0.000599753,-0.00102212,0.0,0.0151972,-0.0537867,0.112652,-0.0598797,-0.00528227,0.271893,0.0,0.0,0.0,-0.759444,275.921,0.191213,-0.112652,0.49322,0.245504,0,1,1,1,1,1,0,1,1,1,1,0
333015347,13251241,45.2203776,-93.1453969,333015428,24.8544,4.70855,-1.04062,0.000599753,-0.00102212,0.0,0.0560011,-0.060339,0.132804,-0.0598797,-0.00528227,0.271893,0.0,0.0,0.0,-0.748257,275.921,0.20858,-0.132804,0.506825,0.245712,0,1,1,1,1,1,0,1,1,1,1,0
333118574,13251241,45.2203776,-93.1453969,333118655,24.8646,4.71499,-0.95133,0.000599753,-0.00102212,0.0,0.0813355,-0.0926942,0.159902,-0.0598797,-0.00528227,0.271893,0.0,0.0,0.0,-0.73421,275.921,0.198752,-0.159902,0.495323,0.244268,0,1,1,1,1,1,0,1,1,1,1,0
333218635,13251241,45.2203776,-93.1453969,333218759,24.8759,4.71589,-0.881547,0.000599753,-0.00102212,0.0,0.0867013,-0.100529,0.164847,-0.0598797,-0.00528227,0.271893,0.0,0.0,0.0,-0.718019,275.921,0.1664,-0.164847,0.507456,0.245666,0,1,1,1,1,1,0,1,1,1,1,0
333319003,13251241,45.2203776,-93.1453969,333319124,24.8873,4.71997,-0.809676,0.000599753,-0.00102212,0.0,0.0493244,-0.100237,0.184969,-0.0598797,-0.00528227,0.271893,0.0,0.0,0.0,-0.7001,275.921,0.134863,-0.184969,0.494203,0.245191,0,1,1,1,1,1,0,1,1,1,1,0
333423316,13251241,45.2203776,-93.1453969,333423434,24.8959,4.72099,-0.756993,0.000599753,-0.00102212,0.0,0.0297209,-0.0908773,0.148946,-0.0598797,-0.00528227,0.271893,0.0,0.0,0.0,-0.682728,275.921,0.101822,-0.148946,0.508398,0.245613,0,1,1,1,1,1,0,1,1,1,1,0
333524181,13251241,45.2203776,-93.1453969,333524343,24.9021,4.72659,-0.722497,0.000599753,-0.00102212,0.0,-0.0153772,-0.0673438,0.122321,-0.0598797,-0.00528227,0.271893,0.0,0.0,0.0,-0.66711,275.921,0.0715452,-0.122321,0.494848,0.245082,0,1,1,1,1,1,0,1,1,1,1,0
333624874,13251241,45.2203776,-93.1453969,333624962,24.9065,4.73141,-0.698049,0.000599753,-0.00102212,0.0,-0.011538,-0.0990479,0.193865,-0.0598797,-0.00528227,0.271893,0.0,0.0,0.0,-0.656074,275.921,0.0547113,-0.193865,0.508513,0.24528,0,1,1,1,1,1,0,1,1,1,1,0
333724960,13251241,45.2203776,-93.1453969,333725053,24.9165,4.73287,-0.677005,0.000599753,-0.00102212,0.0,0.0399891,-0.129855,0.222685,-0.0598797,-0.00528227,0.271893,0.0,0.0,0.0,-0.658085,275.921,0.0224926,-0.222685,0.494532,0.246474,0,1,1,1,1,1,0,1,1,1,1,0
333828855,13251241,45.2203776,-93.1453969,333828945,24.9311,4.73157,-0.66203,0.000599753,-0.00102212,0.0,0.0722482,-0.15185,0.217773,-0.0598797,-0.00528227,0.271893,0.0,0.0,0.0,-0.669343,275.921,0.0052107,-0.217773,0.509298,0.245236,0,1,1,1,1,1,0,1,1,1,1,0
333929793,13251241,45.2203776,-93.1453969,333929880,24.9504,4.72532,-0.653421,0.000599753,-0.00102212,0.0,0.0813744,-0.117192,0.192147,-0.0598797,-0.00528227,0.271893,0.0,0.0,0.0,-0.674888,275.921,-0.00418872,-0.192147,0.495159,0.246321,0,1,1,1,1,1,0,1,1,1,1,0
334030493,13251241,45.2203776,-93.1453969,334030581,24.9672,4.72262,-0.652999,0.000599753,-0.00102212,0.0,0.070761,-0.0345812,0.192047,-0.0598797,-0.00528227,0.271893,0.0,0.0,0.0,-0.671722,275.921,-0.000349283,-0.192047,0.51164,0.245772,0,1,1,1,1,1,0,1,1,1,1,0
334129756,13251241,45.2203776,-93.1453969,334129866,24.9791,4.72098,-0.651632,0.000599753,-0.00102212,0.0,0.114168,0.0205047,0.206134,-0.0598797,-0.00528227,0.271893,0.0,0.0,0.0,-0.666299,275.921,-0.010293,-0.206134,0.495732,0.246228,0,1,1,1,1,1,0,1,1,1,1,0
334233790,13251241,45.2203776,-93.1453969,334233872,24.9953,4.72121,-0.65535,0.000599753,-0.00102212,0.0,0.15746,0.0341375,0.209678,-0.0598797,-0.00528227,0.271893,0.0,0.0,0.0,-0.660332,275.921,-0.0141976,-0.209678,0.510117,0.246693,0,1,1,1,1,1,0,1,1,1,1,0
334334612,13251241,45.2203776,-93.1453969,334334697,25.0157,4.72626,-0.660755,0.000599753,-0.00102212,0.0,0.203825,0.0564327,0.20599,-0.0598797,-0.00528227,0.271893,0.0,0.0,0.0,-0.655676,275.921,-0.0212982,-0.20599,0.496795,0.246388,0,1,1,1,1,1,0,1,1,1,1,0
334435580,13251241,45.2203776,-93.1453969,334435661,25.0413,4.73336,-0.667785,0.000599753,-0.00102212,0.0,0.264806,0.0703973,0.197671,-0.0598797,-0.00528227,0.271893,0.0,0.0,0.0,-0.651014,275.921,-0.0181101,-0.197671,0.509422,0.246114,0,1,1,1,1,1,0,1,1,1,1,0
334539913,13251241,45.2203776,-93.1453969,334539995,25.0714,4.74357,-0.681874,0.000599753,-0.00102212,0.0,0.302341,0.131637,0.184674,-0.0598797,-0.00528227,0.271893,0.0,0.0,0.0,-0.647701,275.921,-0.0213387,-0.184674,0.497484,0.246265,0,1,1,1,1,1,0,1,1,1,1,0
334639351,13251241,45.2203776,-93.1453969,334639475,25.1032,4.75907,-0.695611,0.000599753,-0.00102212,0.0,0.337805,0.184769,0.108583,-0.0598797,-0.00528227,0.271893,0.0,0.0,0.0,-0.638731,275.921,-0.0149103,-0.108583,0.509249,0.245633,0,1,1,1,1,1,0,1,1,1,1,0
334739601,13251241,45.2203776,-93.1453969,334739683,25.1415,4.78364,-0.718791,0.000599753,-0.00102212,0.0,0.332626,0.171424,0.0542628,-0.0598797,-0.00528227,0.271893,0.0,0.0,0.0,-0.623114,275.921,0.000566185,-0.0542628,0.496681,0.245549,0,1,1,1,1,1,0,1,1,1,1,0
334841224,13251241,45.2203776,-93.1453969,334841397,25.1758,4.80678,-0.741439,0.000599753,-0.00102212,0.0,0.27829,0.172065,0.0693981,-0.0598797,-0.00528227,0.271893,0.0,0.0,0.0,-0.613621,275.921,0.0246534,-0.0693981,0.510429,0.245747,0,1,1,1,1,1,0,1,1,1,1,0
334945583,13251241,45.2203776,-93.1453969,334945694,25.2069,4.83854,-0.765315,0.000599753,-0.00102212,0.0,0.291414,0.196025,0.126071,-0.0598797,-0.00528227,0.271893,0.0,0.0,0.0,-0.603579,275.921,0.0208229,-0.126071,0.498541,0.24591,0,1,1,1,1,1,0,1,1,1,1,0
335044969,13251241,45.2203776,-93.1453969,335045097,25.2325,4.865,-0.77973,0.000599753,-0.00102212,0.0,0.206669,0.179288,0.145497,-0.0598797,-0.00528227,0.271893,0.0,0.0,0.0,-0.59202,275.921,0.00210166,-0.145497,0.510714,0.245403,0,1,1,1,1,1,0,1,1,1,1,0
335144922,13251241,45.2203776,-93.1453969,335145013,25.2538,4.89212,-0.800171,0.000599753,-0.00102212,0.0,0.243273,0.1511,0.106882,-0.0598797,-0.00528227,0.271893,0.0,0.0,0.0,-0.580279,275.921,0.0106972,-0.106882,0.498017,0.245182,0,1,1,1,1,1,0,1,1,1,1,0
335249495,13251241,45.2203776,-93.1453969,335249607,25.2789,4.91754,-0.829277,0.000599753,-0.00102212,0.0,0.25839,0.141465,0.0396413,-0.0598797,-0.00528227,0.271893,0.0,0.0,0.0,-0.567139,275.921,0.0172735,-0.0396413,0.512971,0.245825,0,1,1,1,1,1,0,1,1,1,1,0
335350767,13251241,45.2203776,-93.1453969,335350849,25.3057,4.93875,-0.86512,0.000599753,-0.00102212,0.0,0.277045,0.105386,-0.0491463,-0.0598797,-0.00528227,0.271893,0.0,0.0,0.0,-0.54632,275.921,0.0271716,0.0491463,0.499313,0.245292,0,1,1,1,1,1,0,1,1,1,1,0
335450543,13251241,45.2203776,-93.1453969,335450625,25.3314,4.95456,-0.905188,0.000599753,-0.00102212,0.0,0.25331,0.0708613,-0.0557689,-0.0598797,-0.00528227,0.271893,0.0,0.0,0.0,-0.518428,275.921,0.0457057,0.0557689,0.513754,0.245723,0,1,1,1,1,1,0,1,1,1,1,0
335554548,13251241,45.2203776,-93.1453969,335554630,25.359,4.97032,-0.945164,0.000599753,-0.00102212,0.0,0.255153,-0.000395346,-0.0221623,-0.0598797,-0.00528227,0.271893,0.0,0.0,0.0,-0.501471,275.921,0.0478734,0.0221623,0.499269,0.244831,0,1,1,1,1,1,0,1,1,1,1,0
335656098,13251241,45.2203776,-93.1453969,335656179,25.3862,4.97246,-0.993318,0.000599753,-0.00102212,0.0,0.275517,-0.132153,-0.269788,-0.0598797,-0.00528227,0.271893,0.0,0.0,0.0,-0.495033,275.921,0.0665162,0.269788,0.487671,0.244765,0,1,1,1,1,1,0,1,1,1,1,0
335756173,13251241,45.2203776,-93.1453969,335756255,25.4135,4.9572,-1.06606,0.000599753,-0.00102212,0.0,0.237491,-0.16828,-0.385463,-0.0598797,-0.00528227,0.271893,0.0,0.0,0.0,-0.501648,275.921,0.103412,0.385463,0.502018,0.245414,0,1,1,1,1,1,0,1,1,1,1,0
335856185,13251241,45.2203776,-93.1453969,335856271,25.4394,4.93834,-1.1033,0.000599753,-0.00102212,0.0,0.29764,-0.233448,0.266177,-0.0598797,-0.00528227,0.271893,0.0,0.0,0.0,-0.514699,275.921,0.113509,-0.266177,0.514303,0.244907,0,1,1,1,1,1,0,1,1,1,1,0
335960157,13251241,45.2203776,-93.1453969,335960278,25.4768,4.90384,-1.10242,0.000599753,-0.00102212,0.0,0.475924,-0.408204,0.336916,-0.0598797,-0.00528227,0.271893,0.0,0.0,0.0,-0.521029,275.921,0.0395788,-0.336916,0.50155,0.244616,0,1,1,1,1,1,0,1,1,1,1,0
336060149,13251241,45.2203776,-93.1453969,336060231,25.5134,4.86227,-1.11118,0.000599753,-0.00102212,0.0,0.301067,-0.385143,0.0158648,-0.0598797,-0.00528227,0.271893,0.0,0.0,0.0,-0.52716,275.921,0.0126112,-0.0158648,0.516359,0.245124,0,1,1,1,1,1,0,1,1,1,1,0
336161525,13251241,45.2203776,-93.1453969,336161607,25.5287,4.82267,-1.16277,0.000599753,-0.00102212,0.0,0.205524,-0.325364,-0.426573,-0.0598797,-0.00528227,0.271893,0.0,0.0,0.0,-0.540275,275.921,0.0667303,0.426573,0.502077,0.244361,0,1,1,1,1,1,0,1,1,1,1,0
336262047,13251241,45.2203776,-93.1453969,336262192,25.5452,4.78889,-1.21621,0.000599753,-0.00102212,0.0,0.248848,-0.290337,0.0708771,-0.0598797,-0.00528227,0.271893,0.0,0.0,0.0,-0.559269,275.921,0.130072,-0.0708771,0.516517,0.244764,0,1,1,1,1,1,0,1,1,1,1,0
336366269,13251241,45.2203776,-93.1453969,336366390,25.5502,4.76589,-1.19995,0.000599753,-0.00102212,0.0,0.288801,-0.353032,0.339447,-0.0598797,-0.00528227,0.271893,0.0,0.0,0.0,-0.577833,275.921,0.0769708,-0.339447,0.505667,0.244803,0,1,1,1,1,1,0,1,1,1,1,0
336465803,13251241,45.2203776,-93.1453969,336465885,25.5659,4.74062,-1.20023,0.000599753,-0.00102212,0.0,0.235146,-0.251109,0.083861,-0.0598797,-0.00528227,0.271893,0.0,0.0,0.0,-0.585695,275.921,0.0331739,-0.083861,0.492565,0.245605,0,1,1,1,1,1,0,1,1,1,1,0
336566282,13251241,45.2203776,-93.1453969,336566364,25.5708,4.73416,-1.21935,0.000599753,-0.00102212,0.0,0.126994,-0.158121,-0.0437355,-0.0598797,-0.00528227,0.271893,0.0,0.0,0.0,-0.587266,275.921,0.0680135,0.0437355,0.507651,0.244641,0,1,1,1,1,1,0,1,1,1,1,0
336669368,13251241,45.2203776,-93.1453969,336669450,25.5772,4.73425,-1.25324,0.000599753,-0.00102212,0.0,0.194454,-0.0435155,-0.304672,-0.0598797,-0.00528227,0.271893,0.0,0.0,0.0,-0.576146,275.921,0.115439,0.304672,0.496491,0.244441,0,1,1,1,1,1,0,1,1,1,1,0
336771377,13251241,45.2203776,-93.1453969,336771459,25.5997,4.75299,-1.29764,0.000599753,-0.00102212,0.0,0.276396,0.0469942,-0.0317319,-0.0598797,-0.00528227,0.271893,0.0,0.0,0.0,-0.555693,275.921,0.143149,0.0317319,0.509048,0.244177,0,1,1,1,1,1,0,1,1,1,1,0
336871389,13251241,45.2203776,-93.1453969,336871475,25.6245,4.77013,-1.28296,0.000599753,-0.00102212,0.0,0.276222,0.0737012,0.474579,-0.0598797,-0.00528227,0.271893,0.0,0.0,0.0,-0.531444,275.921,0.104401,-0.474579,0.497104,0.243949,0,1,1,1,1,1,0,1,1,1,1,0
336975325,13251241,45.2203776,-93.1453969,336975407,25.683,4.78032,-1.27948,0.000599753,-0.00102212,0.0,0.462409,0.0403514,0.0540218,-0.0598797,-0.00528227,0.271893,0.0,0.0,0.0,-0.502656,275.921,0.0365266,-0.0540218,0.509834,0.245566,0,1,1,1,1,1,0,1,1,1,1,0
337075490,13251241,45.2203776,-93.1453969,337075571,25.7332,4.78921,-1.30284,0.000599753,-0.00102212,0.0,0.349917,0.0336014,-0.0776158,-0.0598797,-0.00528227,0.271893,0.0,0.0,0.0,-0.47896,275.921,0.0644374,0.0776158,0.499177,0.245579,0,1,1,1,1,1,0,1,1,1,1,0
337176927,13251241,45.2203776,-93.1453969,337177013,25.7587,4.80371,-1.33191,0.000599753,-0.00102212,0.0,0.289761,0.00284894,-0.0997164,-0.0598797,-0.00528227,0.271893,0.0,0.0,0.0,-0.459206,275.921,0.101324,0.0997164,0.511738,0.24531,0,1,1,1,1,1,0,1,1,1,1,0
337277143,13251241,45.2203776,-93.1453969,337277224,25.7847,4.81059,-1.3593,0.000599753,-0.00102212,0.0,0.296749,-0.0433641,-0.0362097,-0.0598797,-0.00528227,0.271893,0.0,0.0,0.0,-0.442129,275.921,0.118616,0.0362097,0.500399,0.245443,0,1,1,1,1,1,0,1,1,1,1,0
337380974,13251241,45.2203776,-93.1453969,337381064,25.8141,4.81134,-1.38089,0.000599753,-0.00102212,0.0,0.286171,-0.087899,-0.0244669,-0.0598797,-0.00528227,0.271893,0.0,0.0,0.0,-0.428704,275.921,0.113832,0.0244669,0.512705,0.245026,0,1,1,1,1,1,0,1,1,1,1,0
337481079,13251241,45.2203776,-93.1453969,337481161,25.8422,4.80517,-1.40596,0.000599753,-0.00102212,0.0,0.24659,-0.141855,-0.0231181,-0.0598797,-0.00528227,0.271893,0.0,0.0,0.0,-0.423124,275.921,0.0938482,0.0231181,0.502218,0.245395,0,1,1,1,1,1,0,1,1,1,1,0
337582678,13251241,45.2203776,-93.1453969,337582760,25.8681,4.7907,-1.43005,0.000599753,-0.00102212,0.0,0.178824,-0.188102,0.0119907,-0.0598797,-0.00528227,0.271893,0.0,0.0,0.0,-0.426506,275.921,0.0930152,-0.0119907,0.516557,0.245817,0,1,1,1,1,1,0,1,1,1,1,0
337682606,13251241,45.2203776,-93.1453969,337682727,25.8859,4.77523,-1.45001,0.000599753,-0.00102212,0.0,0.104294,-0.226073,0.0255086,-0.0598797,-0.00528227,0.271893,0.0,0.0,0.0,-0.435249,275.921,0.0835257,-0.0255086,0.50328,0.245056,0,1,1,1,1,1,0,1,1,1,1,0
337786646,13251241,45.2203776,-93.1453969,337786728,25.8974,4.76452,-1.47634,0.000599753,-0.00102212,0.0,0.0600382,-0.213505,-0.0700934,-0.0598797,-0.00528227,0.271893,0.0,0.0,0.0,-0.442677,275.921,0.0933887,0.0700934,0.517818,0.245557,0,1,1,1,1,1,0,1,1,1,1,0
337886558,13251241,45.2203776,-93.1453969,337886653,25.9064,4.75085,-1.50181,0.000599753,-0.00102212,0.0,0.024804,-0.198959,-0.0755434,-0.0598797,-0.00528227,0.271893,0.0,0.0,0.0,-0.446769,275.921,0.110218,0.0755434,0.505389,0.244674,0,1,1,1,1,1,0,1,1,1,1,0
337990538,13251241,45.2203776,-93.1453969,337990623,25.9145,4.74014,-1.52419,0.000599753,-0.00102212,0.0,-0.00949485,-0.12849,-0.0357112,-0.0598797,-0.00528227,0.271893,0.0,0.0,0.0,-0.44805,275.921,0.127503,0.0357112,0.519793,0.245091,0,1,1,1,1,1,0,1,1,1,1,0
338088120,13251241,45.2203776,-93.1453969,338088202,25.9179,4.73394,-1.53871,0.000599753,-0.00102212,0.0,-0.017667,-0.072701,-0.0239999,-0.0598797,-0.00528227,0.271893,0.0,0.0,0.0,-0.450366,275.921,0.115311,0.0239999,0.506719,0.246023,0,1,1,1,1,1,0,1,1,1,1,0
338192323,13251241,45.2203776,-93.1453969,338192405,25.9216,4.73437,-1.55351,0.000599753,-0.00102212,0.0,-0.0223649,0.0297606,-0.0379177,-0.0598797,-0.00528227,0.271893,0.0,0.0,0.0,-0.453139,275.921,0.128421,0.0379177,0.521165,0.246436,0,1,1,1,1,1,0,1,1,1,1,0
338292173,13251241,45.2203776,-93.1453969,338292255,25.9217,4.74317,-1.56562,0.000599753,-0.00102212,0.0,-0.0621979,0.132306,-0.0504791,-0.0598797,-0.00528227,0.271893,0.0,0.0,0.0,-0.454368,275.921,0.134221,0.0504791,0.507713,0.245731,0,1,1,1,1,1,0,1,1,1,1,0
338498438,13251241,45.2203776,-93.1453969,338498559,25.8941,4.78048,-1.58293,0.000599753,-0.00102212,0.0,-0.173586,0.228486,0.00223891,-0.0598797,-0.00528227,0.271893,0.0,0.0,0.0,-0.446999,275.921,0.137327,-0.00223891,0.512282,0.244755,0,1,1,1,1,1,0,1,1,1,1,0
338597711,13251241,45.2203776,-93.1453969,338597793,25.8746,4.80526,-1.58558,0.000599753,-0.00102212,0.0,-0.163438,0.235531,-0.00420006,-0.0598797,-0.00528227,0.271893,0.0,0.0,0.0,-0.438707,275.921,0.135313,0.00420006,0.525154,0.246336,0,1,1,1,1,1,0,1,1,1,1,0
338698552,13251241,45.2203776,-93.1453969,338698638,25.8557,4.83207,-1.58654,0.000599753,-0.00102212,0.0,-0.159109,0.184786,-0.000456662,-0.0598797,-0.00528227,0.271893,0.0,0.0,0.0,-0.428975,275.921,0.132177,0.000456662,0.513349,0.246356,0,1,1,1,1,1,0,1,1,1,1,0
338802322,13251241,45.2203776,-93.1453969,338802441,25.8367,4.85557,-1.58851,0.000599753,-0.00102212,0.0,-0.175143,0.126589,0.00870201,-0.0598797,-0.00528227,0.271893,0.0,0.0,0.0,-0.418415,275.921,0.133278,-0.00870201,0.528477,0.246997,0,1,1,1,1,1,0,1,1,1,1,0
338902439,13251241,45.2203776,-93.1453969,338902547,25.827,4.86962,-1.59669,0.000599753,-0.00102212,0.0,-0.0904398,0.107659,-0.139583,-0.0598797,-0.00528227,0.271893,0.0,0.0,0.0,-0.40972,275.921,0.138512,0.139583,0.514427,0.246213,0,1,1,1,1,1,0,1,1,1,1,0
339004209,13251241,45.2203776,-93.1453969,339004326,25.8256,4.87429,-1.60897,0.000599753,-0.00102212,0.0,-0.106559,0.046014,-0.0404123,-0.0598797,-0.00528227,0.271893,0.0,0.0,0.0,-0.399551,275.921,0.143121,0.0404123,0.52838,0.246391,0,1,1,1,1,1,0,1,1,1,1,0
339103847,13251241,45.2203776,-93.1453969,339103922,25.8178,4.88205,-1.61496,0.000599753,-0.00102212,0.0,-0.0990015,0.0587977,-0.0234858,-0.0598797,-0.00528227,0.271893,0.0,0.0,0.0,-0.394098,275.921,0.135165,0.0234858,0.515093,0.245832,0,1,1,1,1,1,0,1,1,1,1,0
339207378,13251241,45.2203776,-93.1453969,339207453,25.8095,4.8937,-1.62319,0.000599753,-0.00102212,0.0,-0.0741257,0.0662027,-0.0399246,-0.0598797,-0.00528227,0.271893,0.0,0.0,0.0,-0.390562,275.921,0.1266,0.0399246,0.527551,0.247294,0,1,1,1,1,1,0,1,1,1,1,0
339307385,13251241,45.2203776,-93.1453969,339307460,25.8043,4.8995,-1.63464,0.000599753,-0.00102212,0.0,-0.0501696,0.0402422,-0.0357846,-0.0598797,-0.00528227,0.271893,0.0,0.0,0.0,-0.388253,275.921,0.122767,0.0357846,0.516844,0.24564,0,1,1,1,1,1,0,1,1,1,1,0
339408947,13251241,45.2203776,-93.1453969,339409037,25.8019,4.89955,-1.64527,0.000599753,-0.00102212,0.0,-0.0306915,0.0290488,-0.0269142,-0.0598797,-0.00528227,0.271893,0.0,0.0,0.0,-0.390095,275.921,0.121056,0.0269142,0.529672,0.247235,0,1,1,1,1,1,0,1,1,1,1,0
339512949,13251241,45.2203776,-93.1453969,339513038,25.8021,4.90386,-1.65656,0.000599753,-0.00102212,0.0,-0.0044187,0.0378898,-0.0224506,-0.0598797,-0.00528227,0.271893,0.0,0.0,0.0,-0.395561,275.921,0.117192,0.0224506,0.517936,0.245496,0,1,1,1,1,1,0,1,1,1,1,0
339613545,13251241,45.2203776,-93.1453969,339613637,25.8029,4.90925,-1.66563,0.000599753,-0.00102212,0.0,-0.0125989,0.0234779,-0.0472776,-0.0598797,-0.00528227,0.271893,0.0,0.0,0.0,-0.400428,275.921,0.12219,0.0472776,0.533264,0.246208,0,1,1,1,1,1,0,1,1,1,1,0
339713069,13251241,45.2203776,-93.1453969,339713145,25.8033,4.91387,-1.67535,0.000599753,-0.00102212,0.0,0.000218769,0.0236028,-0.0538292,-0.0598797,-0.00528227,0.271893,0.0,0.0,0.0,-0.403943,275.921,0.129715,0.0538292,0.518105,0.246825,0,1,1,1,1,1,0,1,1,1,1,0
339816991,13251241,45.2203776,-93.1453969,339817084,25.8042,4.91858,-1.68725,0.000599753,-0.00102212,0.0,-0.00446361,0.024575,-0.0507144,-0.0598797,-0.00528227,0.271893,0.0,0.0,0.0,-0.408142,275.921,0.126987,0.0507144,0.53371,0.24582,0,1,1,1,1,1,0,1,1,1,1,0
339918548,13251241,45.2203776,-93.1453969,339918623,25.8008,4.91673,-1.69703,0.000599753,-0.00102212,0.0,0.0119928,0.0290903,-0.0518892,-0.0598797,-0.00528227,0.271893,0.0,0.0,0.0,-0.410908,275.921,0.129644,0.0518892,0.520175,0.247136,0,1,1,1,1,1,0,1,1,1,1,0
340018583,13251241,45.2203776,-93.1453969,340018692,25.7988,4.9135,-1.70517,0.000599753,-0.00102212,0.0,0.0348736,0.0314214,-0.0395371,-0.0598797,-0.00528227,0.271893,0.0,0.0,0.0,-0.411271,275.921,0.131171,0.0395371,0.533537,0.247075,0,1,1,1,1,1,0,1,1,1,1,0
340119373,13251241,45.2203776,-93.1453969,340119477,25.7993,4.91314,-1.70916,0.000599753,-0.00102212,0.0,0.0530858,0.0350202,-0.0238529,-0.0598797,-0.00528227,0.271893,0.0,0.0,0.0,-0.410792,275.921,0.132852,0.0238529,0.520625,0.246841,0,1,1,1,1,1,0,1,1,1,1,0
340221003,13251241,45.2203776,-93.1453969,340221092,25.8011,4.91435,-1.71165,0.000599753,-0.00102212,0.0,0.0499468,0.0334771,-0.0194838,-0.0598797,-0.00528227,0.271893,0.0,0.0,0.0,-0.410903,275.921,0.129265,0.0194838,0.535666,0.247483,0,1,1,1,1,1,0,1,1,1,1,0
340325567,13251241,45.2203776,-93.1453969,340325642,25.7985,4.91313,-1.71671,0.000599753,-0.00102212,0.0,0.0316071,0.0194589,-0.0516047,-0.0598797,-0.00528227,0.271893,0.0,0.0,0.0,-0.408067,275.921,0.121302,0.0516047,0.521682,0.246727,0,1,1,1,1,1,0,1,1,1,1,0
340425073,13251241,45.2203776,-93.1453969,340425152,25.7948,4.91038,-1.7277,0.000599753,-0.00102212,0.0,0.0355238,-0.00882976,-0.0986434,-0.0598797,-0.00528227,0.271893,0.0,0.0,0.0,-0.399123,275.921,0.128524,0.0986434,0.534662,0.246519,0,1,1,1,1,1,0,1,1,1,1,0
340525073,13251241,45.2203776,-93.1453969,340525148,25.7915,4.89705,-1.74063,0.000599753,-0.00102212,0.0,0.101098,-0.0742002,-0.111439,-0.0598797,-0.00528227,0.271893,0.0,0.0,0.0,-0.387256,275.921,0.136097,0.111439,0.522667,0.246652,0,1,1,1,1,1,0,1,1,1,1,0
340626627,13251241,45.2203776,-93.1453969,340626708,25.7955,4.87576,-1.75287,0.000599753,-0.00102212,0.0,0.165446,-0.15215,-0.0548332,-0.0598797,-0.00528227,0.271893,0.0,0.0,0.0,-0.37744,275.921,0.134041,0.0548332,0.535427,0.246353,0,1,1,1,1,1,0,1,1,1,1,0
340730554,13251241,45.2203776,-93.1453969,340730629,25.8101,4.84918,-1.75765,0.000599753,-0.00102212,0.0,0.289556,-0.242061,-0.00635388,-0.0598797,-0.00528227,0.271893,0.0,0.0,0.0,-0.380968,275.921,0.132523,0.00635388,0.522356,0.246005,0,1,1,1,1,1,0,1,1,1,1,0
340831124,13251241,45.2203776,-93.1453969,340831204,25.837,4.81279,-1.75015,0.000599753,-0.00102212,0.0,0.384727,-0.385728,0.0461378,-0.0598797,-0.00528227,0.271893,0.0,0.0,0.0,-0.393623,275.921,0.134838,-0.0461378,0.536994,0.246491,0,1,1,1,1,1,0,1,1,1,1,0
340930563,13251241,45.2203776,-93.1453969,340930645,25.875,4.75931,-1.74122,0.000599753,-0.00102212,0.0,0.420367,-0.514807,-0.00317694,-0.0598797,-0.00528227,0.271893,0.0,0.0,0.0,-0.413423,275.921,0.134661,0.00317694,0.521567,0.245238,0,1,1,1,1,1,0,1,1,1,1,0
341035273,13251241,45.2203776,-93.1453969,341035384,25.9123,4.69218,-1.73238,0.000599753,-0.00102212,0.0,0.358703,-0.602508,-0.108127,-0.0598797,-0.00528227,0.271893,0.0,0.0,0.0,-0.431147,275.921,0.160565,0.108127,0.537565,0.24632,0,1,1,1,1,1,0,1,1,1,1,0
341136201,13251241,45.2203776,-93.1453969,341136283,25.9517,4.62306,-1.72971,0.000599753,-0.00102212,0.0,0.347359,-0.669113,-0.238047,-0.0598797,-0.00528227,0.271893,0.0,0.0,0.0,-0.431322,275.921,0.189246,0.238047,0.521995,0.245045,0,1,1,1,1,1,0,1,1,1,1,0
341236188,13251241,45.2203776,-93.1453969,341236299,25.9969,4.55445,-1.73318,0.000599753,-0.00102212,0.0,0.486815,-0.58695,-0.274993,-0.0598797,-0.00528227,0.271893,0.0,0.0,0.0,-0.415066,275.921,0.223107,0.274993,0.536286,0.245433,0,1,1,1,1,1,0,1,1,1,1,0
341340194,13251241,45.2203776,-93.1453969,341340269,26.0586,4.49731,-1.71741,0.000599753,-0.00102212,0.0,0.645442,-0.710611,0.136465,-0.0598797,-0.00528227,0.271893,0.0,0.0,0.0,-0.395638,275.921,0.218969,-0.136465,0.522362,0.244735,0,1,1,1,1,1,0,1,1,1,1,0
341440167,13251241,45.2203776,-93.1453969,341440284,26.131,4.4226,-1.6554,0.000599753,-0.00102212,0.0,0.767091,-0.912824,0.423809,-0.0598797,-0.00528227,0.271893,0.0,0.0,0.0,-0.362535,275.921,0.154949,-0.423809,0.537251,0.245344,0,1,1,1,1,1,0,1,1,1,1,0
341541799,13251241,45.2203776,-93.1453969,341541874,26.2196,4.32618,-1.58154,0.000599753,-0.00102212,0.0,1.03391,-1.14833,0.237166,-0.0598797,-0.00528227,0.271893,0.0,0.0,0.0,-0.325545,275.921,0.126308,-0.237166,0.524096,0.245023,0,1,1,1,1,1,0,1,1,1,1,0
341642401,13251241,45.2203776,-93.1453969,341642476,26.3386,4.20372,-1.52847,0.000599753,-0.00102212,0.0,1.41174,-1.4668,-0.106639,-0.0598797,-0.00528227,0.271893,0.0,0.0,0.0,-0.315302,275.921,0.151422,0.106639,0.539495,0.245884,0,1,1,1,1,1,0,1,1,1,1,0
341746606,13251241,45.2203776,-93.1453969,341746681,26.5271,4.02126,-1.52009,0.000599753,-0.00102212,0.0,2.17395,-1.99978,-0.754999,-0.0598797,-0.00528227,0.271893,0.0,0.0,0.0,-0.351239,275.921,0.184032,0.754999,0.527677,0.2461,0,1,1,1,1,1,0,1,1,1,1,0
341845773,13251241,45.2203776,-93.1453969,341845854,26.8289,3.7528,-1.62547,0.000599753,-0.00102212,0.0,4.25345,-3.39851,-2.18983,-0.0598797,-0.00528227,0.271893,0.0,0.0,0.0,-0.420567,275.921,0.289418,2.18983,0.539321,0.245351,0,1,1,1,1,1,0,1,1,1,1,0
341947959,13251241,45.2203776,-93.1453969,341948052,27.3294,3.35788,-1.84174,0.000599753,-0.00102212,0.0,4.91889,-3.82415,-2.60473,-0.0598797,-0.00528227,0.271893,0.0,0.0,0.0,-0.457158,275.921,0.505684,2.60473,0.526269,0.245032,0,1,1,1,1,1,0,1,1,1,1,0
342047648,13251241,45.2203776,-93.1453969,342047841,27.8424,2.9633,-2.09027,0.000599753,-0.00102212,0.0,5.04658,-3.88566,-3.08304,-0.0598797,-0.00528227,0.271893,0.0,0.0,0.0,-0.49696,275.921,0.754221,3.08304,0.538628,0.24453,0,1,1,1,1,1,0,1,1,1,1,0
342152467,13251241,45.2203776,-93.1453969,342152606,28.3726,2.54105,-2.40204,0.000599753,-0.00102212,0.0,5.049,-3.88312,-3.58199,-0.0598797,-0.00528227,0.271893,0.0,0.0,0.0,-0.558247,275.921,1.06598,3.58199,0.526993,0.244376,0,1,1,1,1,1,0,1,1,1,1,0
342251372,13251241,45.2203776,-93.1453969,342251471,28.8764,2.14081,-2.73571,0.000599753,-0.00102212,0.0,4.92341,-3.84189,-4.0757,-0.0598797,-0.00528227,0.271893,0.0,0.0,0.0,-0.634064,275.921,1.39966,4.0757,0.541238,0.246328,0,1,1,1,1,1,0,1,1,1,1,0
342352128,13251241,45.2203776,-93.1453969,342352226,29.3508,1.73306,-3.09252,0.000599753,-0.00102212,0.0,4.76683,-3.80884,-4.43517,-0.0598797,-0.00528227,0.271893,0.0,0.0,0.0,-0.710928,275.921,1.75647,4.43517,0.530443,0.244785,0,1,1,1,1,1,0,1,1,1,1,0
342452969,13251241,45.2203776,-93.1453969,342453081,29.8266,1.32595,-3.47028,0.000599753,-0.00102212,0.0,4.72578,-3.8721,-4.5588,-0.0598797,-0.00528227,0.271893,0.0,0.0,0.0,-0.786423,275.921,2.13422,4.5588,0.544864,0.246675,0,1,1,1,1,1,0,1,1,1,1,0
342557511,13251241,45.2203776,-93.1453969,342557643,30.2938,0.882508,-3.84305,0.000599753,-0.00102212,0.0,4.74682,-4.06956,-4.51017,-0.0598797,-0.00528227,0.271893,0.0,0.0,0.0,-0.84616,275.921,2.507,4.51017,0.532754,0.246727,0,1,1,1,1,1,0,1,1,1,1,0
342656986,13251241,45.2203776,-93.1453969,342657084,30.7608,0.442596,-4.18424,0.000599753,-0.00102212,0.0,4.94676,-4.39909,-4.16257,-0.0598797,-0.00528227,0.271893,0.0,0.0,0.0,-0.456353,275.921,2.84818,4.16257,0.549534,0.245707,0,1,1,1,1,1,0,1,1,1,1,0
342760987,13251241,45.2203776,-93.1453969,342761083,31.2442,-0.0609368,-4.49599,0.000599753,-0.00102212,0.0,5.4314,-4.78167,-3.51197,-0.0598797,-0.00528227,0.271893,0.0,0.0,0.0,-0.371197,275.921,3.15993,3.51197,0.534748,0.246883,0,1,1,1,1,1,0,1,1,1,1,0
342865544,13251241,45.2203776,-93.1453969,342865625,31.7843,-0.582894,-4.73308,0.000599753,-0.00102212,0.0,5.94552,-5.06899,-2.96956,-0.0598797,-0.00528227,0.271893,0.0,0.0,0.0,-0.281138,275.921,3.39703,2.96956,0.524179,0.246402,0,1,1,1,1,1,0,1,1,1,1,0
342966707,13251241,45.2203776,-93.1453969,342966788,32.3834,-1.17032,-4.94233,0.000599753,-0.00102212,0.0,6.34927,-5.35826,-2.72156,-0.0598797,-0.00528227,0.271893,0.0,0.0,0.0,-0.208598,275.921,3.60628,2.72156,0.537903,0.246473,0,1,1,1,1,1,0,1,1,1,1,0
343066518,13251241,45.2203776,-93.1453969,343066593,32.9988,-1.74646,-5.15501,0.000599753,-0.00102212,0.0,6.51933,-5.63862,-2.92979,-0.0598797,-0.00528227,0.271893,0.0,0.0,0.0,-0.18298,275.921,3.81895,2.92979,0.529045,0.246925,0,1,1,1,1,1,0,1,1,1,1,0
343172761,13251241,45.2203776,-93.1453969,343172853,33.617,-2.3964,-5.43148,0.000599753,-0.00102212,0.0,6.42648,-5.94277,-3.39973,-0.0598797,-0.00528227,0.271893,0.0,0.0,0.0,-0.217208,275.921,4.09542,3.39973,0.543446,0.247104,0,1,1,1,1,1,0,1,1,1,1,0
343274516,13251241,45.2203776,-93.1453969,343274649,34.2272,-3.06073,-5.7684,0.000599753,-0.00102212,0.0,6.16115,-6.11695,-3.97598,-0.0598797,-0.00528227,0.271893,0.0,0.0,0.0,-0.287345,275.921,4.43235,3.97598,0.559253,0.247225,0,1,1,1,1,1,0,1,1,1,1,0
343375839,13251241,45.2203776,-93.1453969,343375946,34.7121,-3.74091,-6.15105,0.000599753,-0.00102212,0.0,5.71452,-6.23643,-4.55804,-0.0598797,-0.00528227,0.271893,0.0,0.0,0.0,-0.381823,275.921,4.81499,4.55804,0.548646,0.247813,0,1,1,1,1,1,0,1,1,1,1,0
343476129,13251241,45.2203776,-93.1453969,343476279,35.1619,-4.41011,-6.57835,0.000599753,-0.00102212,0.0,5.3193,-6.29353,-5.02094,-0.0598797,-0.00528227,0.271893,0.0,0.0,0.0,-0.464766,275.921,5.24229,5.02094,0.536557,0.247658,0,1,1,1,1,1,0,1,1,1,1,0
343579440,13251241,45.2203776,-93.1453969,343579538,35.5905,-5.10386,-7.05107,0.000599753,-0.00102212,0.0,5.13466,-6.36017,-5.18665,-0.0598797,-0.00528227,0.271893,0.0,0.0,0.0,-0.50414,275.921,5.71502,5.18665,0.551952,0.24774,0,1,1,1,1,1,0,1,1,1,1,0
343679322,13251241,45.2203776,-93.1453969,343679463,36.0061,-5.77444,-7.50688,0.000599753,-0.00102212,0.0,5.17628,-6.49267,-5.08475,-0.0598797,-0.00528227,0.271893,0.0,0.0,0.0,-0.508092,275.921,6.17082,5.08475,0.537397,0.246817,0,1,1,1,1,1,0,1,1,1,1,0
343779950,13251241,45.2203776,-93.1453969,343780057,36.4,-6.45338,-7.93663,0.000599753,-0.00102212,0.0,5.28552,-6.63688,-4.96001,-0.0598797,-0.00528227,0.271893,0.0,0.0,0.0,-0.490246,275.921,6.60058,4.96001,0.554433,0.247562,0,1,1,1,1,1,0,1,1,1,1,0
343883448,13251241,45.2203776,-93.1453969,343883546,36.862,-7.17075,-8.37569,0.000599753,-0.00102212,0.0,5.56344,-6.82767,-4.61564,-0.0598797,-0.00528227,0.271893,0.0,0.0,0.0,-0.468754,275.921,7.03963,4.61564,0.542202,0.247673,0,1,1,1,1,1,0,1,1,1,1,0
343984190,13251241,45.2203776,-93.1453969,343984292,37.3373,-7.85886,-8.76622,0.000599753,-0.00102212,0.0,5.92215,-6.99828,-4.15067,-0.0598797,-0.00528227,0.271893,0.0,0.0,0.0,-0.442116,275.921,7.43016,4.15067,0.55754,0.247774,0,1,1,1,1,1,0,1,1,1,1,0
344084212,13251241,45.2203776,-93.1453969,344084298,37.8621,-8.55918,-9.11699,0.000599753,-0.00102212,0.0,6.25132,-7.12838,-3.8186,-0.0598797,-0.00528227,0.271893,0.0,0.0,0.0,-0.412435,275.921,7.78093,3.8186,0.543789,0.249184,0,1,1,1,1,1,0,1,1,1,1,0
344188182,13251241,45.2203776,-93.1453969,344188261,38.4238,-9.28002,-9.47879,0.000599753,-0.00102212,0.0,6.50014,-7.17421,-3.76232,-0.0598797,-0.00528227,0.271893,0.0,0.0,0.0,-0.384097,275.921,8.14274,3.76232,0.560739,0.2499,0,1,1,1,1,1,0,1,1,1,1,0
344288629,13251241,45.2203776,-93.1453969,344288704,39.0026,-9.97049,-9.83636,0.000599753,-0.00102212,0.0,6.7693,-7.20425,-3.65614,-0.0598797,-0.00528227,0.271893,0.0,0.0,0.0,-0.363295,275.921,8.50031,3.65614,0.548911,0.249537,0,1,1,1,1,1,0,1,1,1,1,0
344388286,13251241,45.2203776,-93.1453969,344388365,39.612,-10.6476,-10.1813,0.000599753,-0.00102212,0.0,7.07495,-7.19329,-3.46637,-0.0598797,-0.00528227,0.271893,0.0,0.0,0.0,-0.345385,275.921,8.84521,3.46637,0.567179,0.250509,0,1,1,1,1,1,0,1,1,1,1,0
344494352,13251241,45.2203776,-93.1453969,344494427,40.2919,-11.3484,-10.5133,0.000599753,-0.00102212,0.0,7.37208,-7.17273,-3.28999,-0.0598797,-0.00528227,0.271893,0.0,0.0,0.0,-0.333535,275.921,9.17721,3.28999,0.55542,0.250656,0,1,1,1,1,1,0,1,1,1,1,0
344592940,13251241,45.2203776,-93.1453969,344593015,40.9736,-12.0212,-10.8158,0.000599753,-0.00102212,0.0,7.65495,-7.13737,-3.09324,-0.0598797,-0.00528227,0.271893,0.0,0.0,0.0,-0.319719,275.921,9.47971,3.09324,0.571501,0.250652,0,1,1,1,1,1,0,1,1,1,1,0
344692938,13251241,45.2203776,-93.1453969,344693013,41.6826,-12.6876,-11.1133,0.000599753,-0.00102212,0.0,7.88562,-7.09122,-3.02508,-0.0598797,-0.00528227,0.271893,0.0,0.0,0.0,-0.306732,275.921,9.77722,3.02508,0.560453,0.251252,0,1,1,1,1,1,0,1,1,1,1,0
344797601,13251241,45.2203776,-93.1453969,344797716,42.4332,-13.3904,-11.4177,0.000599753,-0.00102212,0.0,8.10962,-7.0713,-2.97229,-0.0598797,-0.00528227,0.271893,0.0,0.0,0.0,-0.293191,275.921,10.0816,2.97229,0.579181,0.252115,0,1,1,1,1,1,0,1,1,1,1,0
344896982,13251241,45.2203776,-93.1453969,344897107,43.1838,-14.073,-11.7145,0.000599753,-0.00102212,0.0,8.32942,-7.05602,-2.96047,-0.0598797,-0.00528227,0.271893,0.0,0.0,0.0,-0.27243,275.921,10.3784,2.96047,0.564347,0.251878,0,1,1,1,1,1,0,1,1,1,1,0
345000990,13251241,45.2203776,-93.1453969,345001078,43.9864,-14.786,-12.0384,0.000599753,-0.00102212,0.0,8.50914,-6.9689,-3.24348,-0.0598797,-0.00528227,0.271893,0.0,0.0,0.0,-0.251933,275.921,10.7024,3.24348,0.582932,0.252715,0,1,1,1,1,1,0,1,1,1,1,0
345101008,13251241,45.2203776,-93.1453969,345101097,44.774,-15.4798,-12.3745,0.000599753,-0.00102212,0.0,8.6795,-6.8665,-3.48132,-0.0598797,-0.00528227,0.271893,0.0,0.0,0.0,-0.242684,275.921,11.0384,3.48132,0.56636,0.253945,0,1,1,1,1,1,0,1,1,1,1,0
345203278,13251241,45.2203776,-93.1453969,345203353,45.5938,-16.1833,-12.7165,0.000599753,-0.00102212,0.0,8.83698,-6.79842,-3.4041,-0.0598797,-0.00528227,0.271893,0.0,0.0,0.0,-0.242739,275.921,11.3805,3.4041,0.586306,0.253326,0,1,1,1,1,1,0,1,1,1,1,0
345302632,13251241,45.2203776,-93.1453969,345302711,46.4254,-16.8793,-13.0501,0.000599753,-0.00102212,0.0,8.88098,-6.74895,-3.36832,-0.0598797,-0.00528227,0.271893,0.0,0.0,0.0,-0.242673,275.921,11.714,3.36832,0.569307,0.254554,0,1,1,1,1,1,0,1,1,1,1,0
345406577,13251241,45.2203776,-93.1453969,345406652,47.2825,-17.6004,-13.3932,0.000599753,-0.00102212,0.0,8.85636,-6.68212,-3.37758,-0.0598797,-0.00528227,0.271893,0.0,0.0,0.0,-0.240214,275.921,12.0571,3.37758,0.588036,0.25561,0,1,1,1,1,1,0,1,1,1,1,0
345507252,13251241,45.2203776,-93.1453969,345507327,48.114,-18.3101,-13.7347,0.000599753,-0.00102212,0.0,8.806,-6.66067,-3.41899,-0.0598797,-0.00528227,0.271893,0.0,0.0,0.0,-0.233598,275.921,12.3987,3.41899,0.575332,0.256015,0,1,1,1,1,1,0,1,1,1,1,0
345607126,13251241,45.2203776,-93.1453969,345607201,48.9491,-19.0364,-14.0898,0.000599753,-0.00102212,0.0,8.76693,-6.65746,-3.41691,-0.0598797,-0.00528227,0.271893,0.0,0.0,0.0,-0.227945,275.921,12.7537,3.41691,0.592014,0.256218,0,1,1,1,1,1,0,1,1,1,1,0
345708736,13251241,45.2203776,-93.1453969,345708811,49.7998,-19.7827,-14.4543,0.000599753,-0.00102212,0.0,8.7107,-6.67493,-3.46338,-0.0598797,-0.00528227,0.271893,0.0,0.0,0.0,-0.224531,275.921,13.1183,3.46338,0.579628,0.256686,0,1,1,1,1,1,0,1,1,1,1,0
345812748,13251241,45.2203776,-93.1453969,345812827,50.6641,-20.5649,-14.8474,0.000599753,-0.00102212,0.0,8.57832,-6.69097,-3.76475,-0.0598797,-0.00528227,0.271893,0.0,0.0,0.0,-0.224517,275.921,13.5114,3.76475,0.598636,0.257785,0,1,1,1,1,1,0,1,1,1,1,0
345912224,13251241,45.2203776,-93.1453969,345912331,51.4838,-21.3022,-15.2768,0.000599753,-0.00102212,0.0,8.38277,-6.6583,-4.20603,-0.0598797,-0.00528227,0.271893,0.0,0.0,0.0,-0.227553,275.921,13.9407,4.20603,0.581631,0.256622,0,1,1,1,1,1,0,1,1,1,1,0
346016856,13251241,45.2203776,-93.1453969,346016935,52.3209,-22.0627,-15.7575,0.000599753,-0.00102212,0.0,8.22088,-6.61165,-4.41319,-0.0598797,-0.00528227,0.271893,0.0,0.0,0.0,-0.239374,275.921,14.4215,4.41319,0.601248,0.258018,0,1,1,1,1,1,0,1,1,1,1,0
346117043,13251241,45.2203776,-93.1453969,346117130,53.1193,-22.7945,-16.2447,0.000599753,-0.00102212,0.0,8.10802,-6.5958,-4.40364,-0.0598797,-0.00528227,0.271893,0.0,0.0,0.0,-0.248125,275.921,14.9087,4.40364,0.58544,0.257821,0,1,1,1,1,1,0,1,1,1,1,0
346216989,13251241,45.2203776,-93.1453969,346217077,53.9078,-23.5107,-16.7232,0.000599753,-0.00102212,0.0,8.02805,-6.58894,-4.32163,-0.0598797,-0.00528227,0.271893,0.0,0.0,0.0,-0.245446,275.921,15.3871,4.32163,0.605845,0.259569,0,1,1,1,1,1,0,1,1,1,1,0
346316962,13251241,45.2203776,-93.1453969,346317087,54.7022,-24.2006,-17.1867,0.000599753,-0.00102212,0.0,7.98233,-6.55107,-4.19681,-0.0598797,-0.00528227,0.271893,0.0,0.0,0.0,-0.23351,275.921,15.8507,4.19681,0.589408,0.259139,0,1,1,1,1,1,0,1,1,1,1,0
346420950,13251241,45.2203776,-93.1453969,346421038,55.5318,-24.8966,-17.6456,0.000599753,-0.00102212,0.0,7.92919,-6.51639,-4.11333,-0.0598797,-0.00528227,0.271893,0.0,0.0,0.0,-0.218193,275.921,16.3096,4.11333,0.606154,0.259524,0,1,1,1,1,1,0,1,1,1,1,0
346520995,13251241,45.2203776,-93.1453969,346521084,56.3386,-25.5381,-18.071,0.000599753,-0.00102212,0.0,7.87921,-6.45789,-4.06413,-0.0598797,-0.00528227,0.271893,0.0,0.0,0.0,-0.199044,275.921,16.7349,4.06413,0.590642,0.259382,0,1,1,1,1,1,0,1,1,1,1,0
346625450,13251241,45.2203776,-93.1453969,346625525,57.1761,-26.1905,-18.5132,0.000599753,-0.00102212,0.0,7.81129,-6.39298,-3.9972,-0.0598797,-0.00528227,0.271893,0.0,0.0,0.0,-0.179497,275.921,17.1771,3.9972,0.612183,0.261836,0,1,1,1,1,1,0,1,1,1,1,0
346726504,13251241,45.2203776,-93.1453969,346726579,57.9984,-26.805,-18.9496,0.000599753,-0.00102212,0.0,7.66514,-6.29999,-4.13487,-0.0598797,-0.00528227,0.271893,0.0,0.0,0.0,-0.162555,275.921,17.6136,4.13487,0.596743,0.261715,0,1,1,1,1,1,0,1,1,1,1,0
346827249,13251241,45.2203776,-93.1453969,346827324,58.7933,-27.4009,-19.3862,0.000599753,-0.00102212,0.0,7.55418,-6.19771,-4.16206,-0.0598797,-0.00528227,0.271893,0.0,0.0,0.0,-0.14772,275.921,18.0502,4.16206,0.614687,0.262649,0,1,1,1,1,1,0,1,1,1,1,0
346926621,13251241,45.2203776,-93.1453969,346926696,59.5985,-27.9593,-19.8158,0.000599753,-0.00102212,0.0,7.48739,-6.06459,-4.0664,-0.0598797,-0.00528227,0.271893,0.0,0.0,0.0,-0.137337,275.921,18.4797,4.0664,0.59711,0.262103,0,1,1,1,1,1,0,1,1,1,1,0
347031055,13251241,45.2203776,-93.1453969,347031130,60.4332,-28.5222,-20.2474,0.000599753,-0.00102212,0.0,7.41708,-5.9279,-3.92141,-0.0598797,-0.00528227,0.271893,0.0,0.0,0.0,-0.124074,275.921,18.9114,3.92141,0.615844,0.263486,0,1,1,1,1,1,0,1,1,1,1,0
347130538,13251241,45.2203776,-93.1453969,347130629,61.2579,-29.0095,-20.6606,0.000599753,-0.00102212,0.0,7.20256,-5.6528,-4.20673,-0.0598797,-0.00528227,0.271893,0.0,0.0,0.0,-0.10078,275.921,19.3245,4.20673,0.60067,0.26387,0,1,1,1,1,1,0,1,1,1,1,0
347232233,13251241,45.2203776,-93.1453969,347232357,62.0379,-29.5016,-21.1193,0.000599753,-0.00102212,0.0,6.93374,-5.28152,-4.53055,-0.0598797,-0.00528227,0.271893,0.0,0.0,0.0,-0.0767612,275.921,19.7833,4.53055,0.614703,0.26325,0,1,1,1,1,1,0,1,1,1,1,0
347332983,13251241,45.2203776,-93.1453969,347333110,62.8232,-29.9075,-21.584,0.000599753,-0.00102212,0.0,6.80269,-4.92062,-4.53396,-0.0598797,-0.00528227,0.271893,0.0,0.0,0.0,-0.0596987,275.921,20.248,4.53396,0.600945,0.264018,0,1,1,1,1,1,0,1,1,1,1,0
347436180,13251241,45.2203776,-93.1453969,347436285,63.5961,-30.3241,-22.0559,0.000599753,-0.00102212,0.0,6.67717,-4.56867,-4.45016,-0.0598797,-0.00528227,0.271893,0.0,0.0,0.0,-0.0396557,275.921,20.7199,4.45016,0.616437,0.266438,0,1,1,1,1,1,0,1,1,1,1,0
347536848,13251241,45.2203776,-93.1453969,347536939,64.3863,-30.6113,-22.5008,0.000599753,-0.00102212,0.0,6.5809,-4.16851,-4.39211,-0.0598797,-0.00528227,0.271893,0.0,0.0,0.0,-0.0140408,275.921,21.1647,4.39211,0.603513,0.265301,0,1,1,1,1,1,0,1,1,1,1,0
347640151,13251241,45.2203776,-93.1453969,347640242,65.1509,-30.9204,-22.9602,0.000599753,-0.00102212,0.0,6.45516,-3.77974,-4.35416,-0.0598797,-0.00528227,0.271893,0.0,0.0,0.0,0.0189375,275.921,21.6242,4.35416,0.619554,0.265656,0,1,1,1,1,1,0,1,1,1,1,0
347738617,13251241,45.2203776,-93.1453969,347738709,65.9377,-31.1239,-23.3843,0.000599753,-0.00102212,0.0,6.44072,-3.44807,-4.20625,-0.0598797,-0.00528227,0.271893,0.0,0.0,0.0,0.0560834,275.921,22.0483,4.20625,0.604301,0.265826,0,1,1,1,1,1,0,1,1,1,1,0
347841833,13251241,45.2203776,-93.1453969,347841924,66.7458,-31.3392,-23.8111,0.000599753,-0.00102212,0.0,6.42966,-3.12243,-3.9997,-0.0598797,-0.00528227,0.271893,0.0,0.0,0.0,0.106599,275.921,22.475,3.9997,0.621623,0.266817,0,1,1,1,1,1,0,1,1,1,1,0
347942357,13251241,45.2203776,-93.1453969,347942449,67.6545,-31.4606,-24.2026,0.000599753,-0.00102212,0.0,6.50593,-2.74247,-3.77841,-0.0598797,-0.00528227,0.271893,0.0,0.0,0.0,0.158588,275.921,22.8665,3.77841,0.607229,0.26737,0,1,1,1,1,1,0,1,1,1,1,0
348045743,13251241,45.2203776,-93.1453969,348045912,68.4846,-31.6238,-24.5882,0.000599753,-0.00102212,0.0,6.47137,-2.3578,-3.63781,-0.0598797,-0.00528227,0.271893,0.0,0.0,0.0,0.205809,275.921,23.2522,3.63781,0.623127,0.27009,0,1,1,1,1,1,0,1,1,1,1,0
348147963,13251241,45.2203776,-93.1453969,348148072,69.4439,-31.6673,-24.9623,0.000599753,-0.00102212,0.0,6.52855,-1.93626,-3.4837,-0.0598797,-0.00528227,0.271893,0.0,0.0,0.0,0.240381,275.921,23.6263,3.4837,0.608011,0.268203,0,1,1,1,1,1,0,1,1,1,1,0
348247307,13251241,45.2203776,-93.1453969,348247437,70.3019,-31.7222,-25.3285,0.000599753,-0.00102212,0.0,6.46742,-1.53273,-3.46406,-0.0598797,-0.00528227,0.271893,0.0,0.0,0.0,0.269218,275.921,23.9924,3.46406,0.625811,0.269436,0,1,1,1,1,1,0,1,1,1,1,0
348348005,13251241,45.2203776,-93.1453969,348348112,71.2883,-31.6701,-25.7049,0.000599753,-0.00102212,0.0,6.4706,-1.08304,-3.46287,-0.0598797,-0.00528227,0.271893,0.0,0.0,0.0,0.293485,275.921,24.3688,3.46287,0.606573,0.270991,0,1,1,1,1,1,0,1,1,1,1,0
348451408,13251241,45.2203776,-93.1453969,348451511,72.2096,-31.6292,-26.0893,0.000599753,-0.00102212,0.0,6.44826,-0.695254,-3.37928,-0.0598797,-0.00528227,0.271893,0.0,0.0,0.0,0.321795,275.921,24.7532,3.37928,0.623329,0.271861,0,1,1,1,1,1,0,1,1,1,1,0
348552136,13251241,45.2203776,-93.1453969,348552229,73.059,-31.5677,-26.4349,0.000599753,-0.00102212,0.0,6.46881,-0.346601,-3.11689,-0.0598797,-0.00528227,0.271893,0.0,0.0,0.0,0.355334,275.921,25.0988,3.11689,0.619727,0.272994,0,1,1,1,1,1,0,1,1,1,1,0
348654381,13251241,45.2203776,-93.1453969,348654468,73.8844,-31.4918,-26.7539,0.000599753,-0.00102212,0.0,6.45714,0.0247276,-2.87283,-0.0598797,-0.00528227,0.271893,0.0,0.0,0.0,0.390299,275.921,25.4178,2.87283,0.61697,0.272253,0,1,1,1,1,1,0,1,1,1,1,0
348752936,13251241,45.2203776,-93.1453969,348753060,74.6483,-31.3995,-27.0427,0.000599753,-0.00102212,0.0,6.31612,0.396376,-2.8382,-0.0598797,-0.00528227,0.271893,0.0,0.0,0.0,0.420892,275.921,25.7067,2.8382,0.632914,0.27462,0,1,1,1,1,1,0,1,1,1,1,0
348857049,13251241,45.2203776,-93.1453969,348857138,75.4159,-31.2755,-27.3358,0.000599753,-0.00102212,0.0,6.2238,0.7259,-2.69024,-0.0598797,-0.00528227,0.271893,0.0,0.0,0.0,0.46122,275.921,25.9998,2.69024,0.628743,0.27582,0,1,1,1,1,1,0,1,1,1,1,0
348956921,13251241,45.2203776,-93.1453969,348957010,76.1618,-31.116,-27.5934,0.000599753,-0.00102212,0.0,6.15299,1.06399,-2.4981,-0.0598797,-0.00528227,0.271893,0.0,0.0,0.0,0.513353,275.921,26.2574,2.4981,0.650159,0.277632,0,1,1,1,1,1,0,1,1,1,1,0
349059011,13251241,45.2203776,-93.1453969,349059178,76.8623,-30.9435,-27.8169,0.000599753,-0.00102212,0.0,6.07635,1.42486,-2.21725,-0.0598797,-0.00528227,0.271893,0.0,0.0,0.0,0.566596,275.921,26.4808,2.21725,0.643531,0.277927,0,1,1,1,1,1,0,1,1,1,1,0
349162763,13251241,45.2203776,-93.1453969,349162852,77.6091,-30.7095,-28.0316,0.000599753,-0.00102212,0.0,5.96314,1.82934,-2.00274,-0.0598797,-0.00528227,0.271893,0.0,0.0,0.0,0.615416,275.921,26.6955,2.00274,0.662006,0.277932,0,1,1,1,1,1,0,1,1,1,1,0
349263459,13251241,45.2203776,-93.1453969,349263577,78.2947,-30.455,-28.2212,0.000599753,-0.00102212,0.0,5.80247,2.22033,-1.92158,-0.0598797,-0.00528227,0.271893,0.0,0.0,0.0,0.654804,275.921,26.8851,1.92158,0.657098,0.279168,0,1,1,1,1,1,0,1,1,1,1,0
349362763,13251241,45.2203776,-93.1453969,349362851,79.0021,-30.1409,-28.4136,0.000599753,-0.00102212,0.0,5.60663,2.6375,-1.95495,-0.0598797,-0.00528227,0.271893,0.0,0.0,0.0,0.692085,275.921,27.0775,1.95495,0.679306,0.280273,0,1,1,1,1,1,0,1,1,1,1,0
349466620,13251241,45.2203776,-93.1453969,349466709,79.6957,-29.7836,-28.6214,0.000599753,-0.00102212,0.0,5.39645,3.04593,-1.9603,-0.0598797,-0.00528227,0.271893,0.0,0.0,0.0,0.73109,275.921,27.2854,1.9603,0.670389,0.280017,0,1,1,1,1,1,0,1,1,1,1,0
349568003,13251241,45.2203776,-93.1453969,349568146,80.411,-29.3645,-28.8123,0.000599753,-0.00102212,0.0,5.20544,3.42732,-1.97887,-0.0598797,-0.00528227,0.271893,0.0,0.0,0.0,0.766483,275.921,27.4762,1.97887,0.695023,0.281659,0,1,1,1,1,1,0,1,1,1,1,0
349667324,13251241,45.2203776,-93.1453969,349667412,81.0397,-28.9472,-28.9993,0.000599753,-0.00102212,0.0,5.05503,3.70748,-1.88846,-0.0598797,-0.00528227,0.271893,0.0,0.0,0.0,0.806509,275.921,27.6632,1.88846,0.68504,0.284136,0,1,1,1,1,1,0,1,1,1,1,0
349771423,13251241,45.2203776,-93.1453969,349771520,81.7875,-28.4293,-29.1735,0.000599753,-0.00102212,0.0,4.95587,4.01838,-1.6988,-0.0598797,-0.00528227,0.271893,0.0,0.0,0.0,0.867148,275.921,27.8374,1.6988,0.708182,0.284757,0,1,1,1,1,1,0,1,1,1,1,0
349871336,13251241,45.2203776,-93.1453969,349871425,82.4209,-27.9361,-29.3196,0.000599753,-0.00102212,0.0,4.77555,4.33182,-1.56323,-0.0598797,-0.00528227,0.271893,0.0,0.0,0.0,0.94257,275.921,27.9836,1.56323,0.697183,0.284304,0,1,1,1,1,1,0,1,1,1,1,0
349972382,13251241,45.2203776,-93.1453969,349972471,83.1669,-27.3399,-29.4568,0.000599753,-0.00102212,0.0,4.50932,4.74403,-1.61847,-0.0598797,-0.00528227,0.271893,0.0,0.0,0.0,1.01838,275.921,28.1208,1.61847,0.722884,0.285546,0,1,1,1,1,1,0,1,1,1,1,0
350075491,13251241,45.2203776,-93.1453969,350075584,83.794,-26.7311,-29.6204,0.000599753,-0.00102212,0.0,4.10609,5.17373,-1.84821,-0.0598797,-0.00528227,0.271893,0.0,0.0,0.0,1.08618,275.921,28.2844,1.84821,0.709639,0.287573,0,1,1,1,1,1,0,1,1,1,1,0
350176276,13251241,45.2203776,-93.1453969,350176365,84.5282,-26.0137,-29.8035,0.000599753,-0.00102212,0.0,3.70111,5.60414,-2.25554,-0.0598797,-0.00528227,0.271893,0.0,0.0,0.0,1.13998,275.921,28.4675,2.25554,0.737991,0.286457,0,1,1,1,1,1,0,1,1,1,1,0
350277647,13251241,45.2203776,-93.1453969,350277734,85.163,-25.2819,-30.0267,0.000599753,-0.00102212,0.0,3.26547,5.98972,-2.63398,-0.0598797,-0.00528227,0.271893,0.0,0.0,0.0,1.18179,275.921,28.6906,2.63398,0.729877,0.288036,0,1,1,1,1,1,0,1,1,1,1,0
350376966,13251241,45.2203776,-93.1453969,350377065,85.7796,-24.5061,-30.2831,0.000599753,-0.00102212,0.0,2.87189,6.34514,-2.86489,-0.0598797,-0.00528227,0.271893,0.0,0.0,0.0,1.21481,275.921,28.947,2.86489,0.751534,0.287019,0,1,1,1,1,1,0,1,1,1,1,0
350480968,13251241,45.2203776,-93.1453969,350481064,86.3652,-23.6668,-30.5587,0.000599753,-0.00102212,0.0,2.48643,6.68279,-2.93898,-0.0598797,-0.00528227,0.271893,0.0,0.0,0.0,1.24605,275.921,29.2227,2.93898,0.739345,0.290149,0,1,1,1,1,1,0,1,1,1,1,0
350581007,13251241,45.2203776,-93.1453969,350581104,86.9971,-22.7712,-30.8395,0.000599753,-0.00102212,0.0,2.09793,7.00793,-3.03265,-0.0598797,-0.00528227,0.271893,0.0,0.0,0.0,1.27193,275.921,29.5035,3.03265,0.764855,0.290213,0,1,1,1,1,1,0,1,1,1,1,0
350682628,13251241,45.2203776,-93.1453969,350682719,87.5641,-21.8372,-31.1422,0.000599753,-0.00102212,0.0,1.54231,7.27581,-3.42673,-0.0598797,-0.00528227,0.271893,0.0,0.0,0.0,1.29082,275.921,29.8061,3.42673,0.752501,0.290617,0,1,1,1,1,1,0,1,1,1,1,0
350786585,13251241,45.2203776,-93.1453969,350786672,88.1492,-20.8239,-31.4919,0.000599753,-0.00102212,0.0,1.12999,7.52338,-3.59268,-0.0598797,-0.00528227,0.271893,0.0,0.0,0.0,1.31665,275.921,30.1559,3.59268,0.781091,0.291416,0,1,1,1,1,1,0,1,1,1,1,0
350886511,13251241,45.2203776,-93.1453969,350886638,88.6953,-19.8026,-31.8207,0.000599753,-0.00102212,0.0,0.806293,7.76861,-3.55062,-0.0598797,-0.00528227,0.271893,0.0,0.0,0.0,1.35551,275.921,30.4846,3.55062,0.769737,0.289573,0,1,1,1,1,1,0,1,1,1,1,0
350987013,13251241,45.2203776,-93.1453969,350987117,89.2812,-18.7118,-32.1115,0.000599753,-0.00102212,0.0,0.733514,8.00951,-3.17059,-0.0598797,-0.00528227,0.271893,0.0,0.0,0.0,1.40121,275.921,30.7755,3.17059,0.799403,0.29038,0,1,1,1,1,1,0,1,1,1,1,0
351087209,13251241,45.2203776,-93.1453969,351087296,89.8608,-17.5908,-32.3626,0.000599753,-0.00102212,0.0,0.710101,8.27485,-2.66218,-0.0598797,-0.00528227,0.271893,0.0,0.0,0.0,1.46445,275.921,31.0265,2.66218,0.785615,0.291029,0,1,1,1,1,1,0,1,1,1,1,0
351192211,13251241,45.2203776,-93.1453969,351192330,90.4086,-16.4032,-32.5926,0.000599753,-0.00102212,0.0,0.432531,8.53549,-2.38325,-0.0598797,-0.00528227,0.271893,0.0,0.0,0.0,1.54136,275.921,31.2566,2.38325,0.811302,0.293349,0,1,1,1,1,1,0,1,1,1,1,0
351292304,13251241,45.2203776,-93.1453969,351292430,90.9345,-15.2192,-32.8052,0.000599753,-0.00102212,0.0,-0.0538978,8.7576,-2.32853,-0.0598797,-0.00528227,0.271893,0.0,0.0,0.0,1.61476,275.921,31.4692,2.32853,0.793301,0.293053,0,1,1,1,1,1,0,1,1,1,1,0
351392462,13251241,45.2203776,-93.1453969,351392609,91.3755,-14.0249,-33.0225,0.000599753,-0.00102212,0.0,-0.694984,8.94028,-2.30611,-0.0598797,-0.00528227,0.271893,0.0,0.0,0.0,1.67994,275.921,31.6865,2.30611,0.819205,0.292264,0,1,1,1,1,1,0,1,1,1,1,0
351496189,13251241,45.2203776,-93.1453969,351496277,91.708,-12.7943,-33.2309,0.000599753,-0.00102212,0.0,-1.33139,9.10433,-2.11335,-0.0598797,-0.00528227,0.271893,0.0,0.0,0.0,1.73319,275.921,31.8949,2.11335,0.797031,0.291057,0,1,1,1,1,1,0,1,1,1,1,0
351598541,13251241,45.2203776,-93.1453969,351598629,92.217,-11.4012,-33.4044,0.000599753,-0.00102212,0.0,-1.784,9.31902,-1.79789,-0.0598797,-0.00528227,0.271893,0.0,0.0,0.0,1.77575,275.921,32.0683,1.79789,0.82969,0.292337,0,1,1,1,1,1,0,1,1,1,1,0
351697765,13251241,45.2203776,-93.1453969,351697853,92.6418,-10.0105,-33.5494,0.000599753,-0.00102212,0.0,-2.41263,9.45979,-1.62953,-0.0598797,-0.00528227,0.271893,0.0,0.0,0.0,1.82153,275.921,32.2133,1.62953,0.813787,0.293298,0,1,1,1,1,1,0,1,1,1,1,0
351797767,13251241,45.2203776,-93.1453969,351797855,92.957,-8.62498,-33.6769,0.000599753,-0.00102212,0.0,-3.12437,9.50402,-1.54093,-0.0598797,-0.00528227,0.271893,0.0,0.0,0.0,1.86647,275.921,32.3408,1.54093,0.84269,0.293161,0,1,1,1,1,1,0,1,1,1,1,0
351901802,13251241,45.2203776,-93.1453969,351901895,93.2883,-7.09876,-33.8047,0.000599753,-0.00102212,0.0,-3.93183,9.49508,-1.53949,-0.0598797,-0.00528227,0.271893,0.0,0.0,0.0,1.91691,275.921,32.4686,1.53949,0.823529,0.293371,0,1,1,1,1,1,0,1,1,1,1,0
352001807,13251241,45.2203776,-93.1453969,352001901,93.4033,-5.7137,-33.9171,0.000599753,-0.00102212,0.0,-4.64738,9.42843,-1.42528,-0.0598797,-0.00528227,0.271893,0.0,0.0,0.0,1.96289,275.921,32.5811,1.42528,0.852196,0.293052,0,1,1,1,1,1,0,1,1,1,1,0
352103366,13251241,45.2203776,-93.1453969,352103460,93.4408,-4.30304,-34.0096,0.000599753,-0.00102212,0.0,-5.29779,9.34704,-1.26451,-0.0598797,-0.00528227,0.271893,0.0,0.0,0.0,2.01246,275.921,32.6735,1.26451,0.828783,0.292105,0,1,1,1,1,1,0,1,1,1,1,0
352207865,13251241,45.2203776,-93.1453969,352208042,93.4524,-2.81162,-34.075,0.000599753,-0.00102212,0.0,-5.97829,9.234,-1.12045,-0.0598797,-0.00528227,0.271893,0.0,0.0,0.0,2.06816,275.921,32.739,1.12045,0.861452,0.292969,0,1,1,1,1,1,0,1,1,1,1,0
352307362,13251241,45.2203776,-93.1453969,352307465,93.314,-1.44043,-34.1292,0.000599753,-0.00102212,0.0,-6.62689,9.07943,-0.950655,-0.0598797,-0.00528227,0.271893,0.0,0.0,0.0,2.12348,275.921,32.7932,0.950655,0.835692,0.291389,0,1,1,1,1,1,0,1,1,1,1,0
352407941,13251241,45.2203776,-93.1453969,352408045,93.1668,-0.0114559,-34.1558,0.000599753,-0.00102212,0.0,-7.33198,8.86166,-0.902528,-0.0598797,-0.00528227,0.271893,0.0,0.0,0.0,2.1791,275.921,32.8197,0.902528,0.868579,0.292257,0,1,1,1,1,1,0,1,1,1,1,0
352508645,13251241,45.2203776,-93.1453969,352508735,92.9697,1.46235,-34.1769,0.000599753,-0.00102212,0.0,-7.99597,8.6365,-0.84241,-0.0598797,-0.00528227,0.271893,0.0,0.0,0.0,2.23679,275.921,32.8408,0.84241,0.845812,0.291638,0,1,1,1,1,1,0,1,1,1,1,0
352612952,13251241,45.2203776,-93.1453969,352613065,92.6221,2.92674,-34.1811,0.000599753,-0.00102212,0.0,-8.64795,8.36163,-0.74616,-0.0598797,-0.00528227,0.271893,0.0,0.0,0.0,2.29593,275.921,32.8451,0.74616,0.879062,0.292489,0,1,1,1,1,1,0,1,1,1,1,0
352713505,13251241,45.2203776,-93.1453969,352713598,92.3701,4.49923,-34.1645,0.000599753,-0.00102212,0.0,-9.22584,8.14129,-0.6855,-0.0598797,-0.00528227,0.271893,0.0,0.0,0.0,2.35248,275.921,32.8285,0.6855,0.856516,0.292306,0,1,1,1,1,1,0,1,1,1,1,0
352813687,13251241,45.2203776,-93.1453969,352813777,91.8676,5.86277,-34.1417,0.000599753,-0.00102212,0.0,-9.90728,7.72826,-0.70555,-0.0598797,-0.00528227,0.271893,0.0,0.0,0.0,2.40974,275.921,32.8057,0.70555,0.889502,0.293032,0,1,1,1,1,1,0,1,1,1,1,0
352916937,13251241,45.2203776,-93.1453969,352917039,91.321,7.33031,-34.1256,0.000599753,-0.00102212,0.0,-10.5942,7.25976,-0.781916,-0.0598797,-0.00528227,0.271893,0.0,0.0,0.0,2.46608,275.921,32.7896,0.781916,0.861372,0.291728,0,1,1,1,1,1,0,1,1,1,1,0
353018562,13251241,45.2203776,-93.1453969,353018736,90.6817,8.70959,-34.0967,0.000599753,-0.00102212,0.0,-11.174,6.81095,-0.825761,-0.0598797,-0.00528227,0.271893,0.0,0.0,0.0,2.51785,275.921,32.7607,0.825761,0.896672,0.293129,0,1,1,1,1,1,0,1,1,1,1,0
353118554,13251241,45.2203776,-93.1453969,353118644,90.0417,10.1262,-34.0889,0.000599753,-0.00102212,0.0,-11.6695,6.40365,-0.872492,-0.0598797,-0.00528227,0.271893,0.0,0.0,0.0,2.56878,275.921,32.7529,0.872492,0.869096,0.292297,0,1,1,1,1,1,0,1,1,1,1,0
353222704,13251241,45.2203776,-93.1453969,353222798,89.1733,11.3802,-34.0737,0.000599753,-0.00102212,0.0,-12.1665,5.86154,-0.993332,-0.0598797,-0.00528227,0.271893,0.0,0.0,0.0,2.62048,275.921,32.7376,0.993332,0.899908,0.292364,0,1,1,1,1,1,0,1,1,1,1,0
353322763,13251241,45.2203776,-93.1453969,353322856,88.3599,12.6914,-34.0728,0.000599753,-0.00102212,0.0,-12.5663,5.42136,-1.1283,-0.0598797,-0.00528227,0.271893,0.0,0.0,0.0,2.66827,275.921,32.7367,1.1283,0.873724,0.295272,0,1,1,1,1,1,0,1,1,1,1,0
353422767,13251241,45.2203776,-93.1453969,353422898,87.4224,13.8728,-34.0663,0.000599753,-0.00102212,0.0,-12.9221,4.94625,-1.23808,-0.0598797,-0.00528227,0.271893,0.0,0.0,0.0,2.71871,275.921,32.7303,1.23808,0.905909,0.295768,0,1,1,1,1,1,0,1,1,1,1,0
353524715,13251241,45.2203776,-93.1453969,353524798,86.2964,14.8553,-34.0296,0.000599753,-0.00102212,0.0,-13.2493,4.4173,-1.28309,-0.0598797,-0.00528227,0.271893,0.0,0.0,0.0,2.7683,275.921,32.6936,1.28309,0.942102,0.297161,0,1,1,1,1,1,0,1,1,1,1,0
353628612,13251241,45.2203776,-93.1453969,353628764,84.9751,15.5817,-34.0051,0.000599753,-0.00102212,0.0,-13.5751,3.74418,-1.38365,-0.0598797,-0.00528227,0.271893,0.0,0.0,0.0,2.81389,275.921,32.669,1.38365,0.976807,0.297787,0,1,1,1,1,1,0,1,1,1,1,0
353728245,13251241,45.2203776,-93.1453969,353728332,83.6011,16.1109,-33.9851,0.000599753,-0.00102212,0.0,-13.8765,2.95813,-1.69592,-0.0598797,-0.00528227,0.271893,0.0,0.0,0.0,2.85469,275.921,32.649,1.69592,1.01176,0.298158,0,1,1,1,1,1,0,1,1,1,1,0
353828227,13251241,45.2203776,-93.1453969,353828310,82.1501,16.4849,-33.9875,0.000599753,-0.00102212,0.0,-14.1089,2.23755,-1.8839,-0.0598797,-0.00528227,0.271893,0.0,0.0,0.0,2.8964,275.921,32.6514,1.8839,1.0518,0.299719,0,1,1,1,1,1,0,1,1,1,1,0
353933671,13251241,45.2203776,-93.1453969,353933754,80.5529,16.7323,-33.9832,0.000599753,-0.00102212,0.0,-14.3119,1.4464,-2.07461,-0.0598797,-0.00528227,0.271893,0.0,0.0,0.0,2.94479,275.921,32.6471,2.07461,1.09322,0.301356,0,1,1,1,1,1,0,1,1,1,1,0
354034302,13251241,45.2203776,-93.1453969,354034394,78.9512,16.8324,-33.9732,0.000599753,-0.00102212,0.0,-14.4768,0.630771,-2.26727,-0.0598797,-0.00528227,0.271893,0.0,0.0,0.0,2.99674,275.921,32.6372,2.26727,1.13439,0.302625,0,1,1,1,1,1,0,1,1,1,1,0
354133795,13251241,45.2203776,-93.1453969,354133882,77.3536,16.8192,-34.0143,0.000599753,-0.00102212,0.0,-14.5873,-0.182929,-2.44723,-0.0598797,-0.00528227,0.271893,0.0,0.0,0.0,3.04344,275.921,32.6783,2.44723,1.17167,0.302535,0,1,1,1,1,1,0,1,1,1,1,0
354234655,13251241,45.2203776,-93.1453969,354234739,75.6885,16.6866,-34.012,0.000599753,-0.00102212,0.0,-14.6663,-0.982205,-2.55034,-0.0598797,-0.00528227,0.271893,0.0,0.0,0.0,3.08704,275.921,32.6759,2.55034,1.21401,0.303528,0,1,1,1,1,1,0,1,1,1,1,0
354337756,13251241,45.2203776,-93.1453969,354337844,73.9931,16.4678,-34.0833,0.000599753,-0.00102212,0.0,-14.694,-1.75933,-2.60289,-0.0598797,-0.00528227,0.271893,0.0,0.0,0.0,3.1285,275.921,32.7473,2.60289,1.25189,0.306484,0,1,1,1,1,1,0,1,1,1,1,0
354438584,13251241,45.2203776,-93.1453969,354438667,72.3069,16.1572,-34.1095,0.000599753,-0.00102212,0.0,-14.7045,-2.42386,-2.55716,-0.0598797,-0.00528227,0.271893,0.0,0.0,0.0,-3.11955,275.921,32.7735,2.55716,1.29561,0.307294,0,1,1,1,1,1,0,1,1,1,1,0
354539049,13251241,45.2203776,-93.1453969,354539132,70.6182,15.7703,-34.1176,0.000599753,-0.00102212,0.0,-14.7015,-2.9903,-2.39579,-0.0598797,-0.00528227,0.271893,0.0,0.0,0.0,-3.08466,275.921,32.7816,2.39579,1.34216,0.308551,0,1,1,1,1,1,0,1,1,1,1,0
354642623,13251241,45.2203776,-93.1453969,354642706,68.8666,15.2968,-34.1285,0.000599753,-0.00102212,0.0,-14.6414,-3.72691,-2.56827,-0.0598797,-0.00528227,0.271893,0.0,0.0,0.0,-3.04761,275.921,32.7924,2.56827,1.38822,0.309428,0,1,1,1,1,1,0,1,1,1,1,0
354742655,13251241,45.2203776,-93.1453969,354742766,67.1521,14.7407,-34.1272,0.000599753,-0.00102212,0.0,-14.5741,-4.39141,-2.69985,-0.0598797,-0.00528227,0.271893,0.0,0.0,0.0,-3.01341,275.921,32.7912,2.69985,1.4426,0.312033,0,1,1,1,1,1,0,1,1,1,1,0
354843136,13251241,45.2203776,-93.1453969,354843223,65.4648,14.125,-34.1624,0.000599753,-0.00102212,0.0,-14.4869,-5.02266,-2.74849,-0.0598797,-0.00528227,0.271893,0.0,0.0,0.0,-2.97808,275.921,32.8263,2.74849,1.49209,0.313143,0,1,1,1,1,1,0,1,1,1,1,0
354946596,13251241,45.2203776,-93.1453969,354946679,63.7225,13.416,-34.2091,0.000599753,-0.00102212,0.0,-14.3767,-5.65713,-2.79439,-0.0598797,-0.00528227,0.271893,0.0,0.0,0.0,-2.94415,275.921,32.8731,2.79439,1.53642,0.312748,0,1,1,1,1,1,0,1,1,1,1,0
355047398,13251241,45.2203776,-93.1453969,355047485,62.0497,12.6633,-34.2672,0.000599753,-0.00102212,0.0,-14.2495,-6.18681,-2.75076,-0.0598797,-0.00528227,0.271893,0.0,0.0,0.0,-2.91075,275.921,32.9311,2.75076,1.5877,0.313701,0,1,1,1,1,1,0,1,1,1,1,0
355147805,13251241,45.2203776,-93.1453969,355147889,60.374,11.8437,-34.2914,0.000599753,-0.00102212,0.0,-14.1551,-6.6368,-2.57297,-0.0598797,-0.00528227,0.271893,0.0,0.0,0.0,-2.87177,275.921,32.9553,2.57297,1.64201,0.31513,0,1,1,1,1,1,0,1,1,1,1,0
355251379,13251241,45.2203776,-93.1453969,355251462,58.6817,10.963,-34.3415,0.000599753,-0.00102212,0.0,-14.0347,-7.10884,-2.42531,-0.0598797,-0.00528227,0.271893,0.0,0.0,0.0,-2.82914,275.921,33.0055,2.42531,1.69116,0.315077,0,1,1,1,1,1,0,1,1,1,1,0
355351363,13251241,45.2203776,-93.1453969,355351447,57.0561,10.0552,-34.3639,0.000599753,-0.00102212,0.0,-13.9234,-7.54293,-2.20326,-0.0598797,-0.00528227,0.271893,0.0,0.0,0.0,-2.79347,275.921,33.0279,2.20326,1.74273,0.315373,0,1,1,1,1,1,0,1,1,1,1,0
355455328,13251241,45.2203776,-93.1453969,355455405,55.3907,9.06951,-34.3778,0.000599753,-0.00102212,0.0,-13.8316,-7.95162,-1.90013,-0.0598797,-0.00528227,0.271893,0.0,0.0,0.0,-2.76996,275.921,33.0417,1.90013,1.79375,0.319086,0,1,1,1,1,1,0,1,1,1,1,0
355555343,13251241,45.2203776,-93.1453969,355555457,53.7871,8.06698,-34.3475,0.000599753,-0.00102212,0.0,-13.7871,-8.31557,-1.48527,-0.0598797,-0.00528227,0.271893,0.0,0.0,0.0,-2.75684,275.921,33.0114,1.48527,1.84884,0.319679,0,1,1,1,1,1,0,1,1,1,1,0
355655559,13251241,45.2203776,-93.1453969,355655677,52.1886,7.02133,-34.2777,0.000599753,-0.00102212,0.0,-13.7573,-8.6632,-1.11801,-0.0598797,-0.00528227,0.271893,0.0,0.0,0.0,-2.75134,275.921,32.9416,1.11801,1.90228,0.319684,0,1,1,1,1,1,0,1,1,1,1,0
355757192,13251241,45.2203776,-93.1453969,355757269,50.5651,5.91016,-34.1694,0.000599753,-0.00102212,0.0,-13.7021,-9.04602,-0.874338,-0.0598797,-0.00528227,0.271893,0.0,0.0,0.0,-2.74132,275.921,32.8333,0.874338,1.96201,0.316989,0,1,1,1,1,1,0,1,1,1,1,0
355861001,13251241,45.2203776,-93.1453969,355861090,48.9896,4.79152,-34.1256,0.000599753,-0.00102212,0.0,-13.5907,-9.46572,-0.84683,-0.0598797,-0.00528227,0.271893,0.0,0.0,0.0,-2.73167,275.921,32.7896,0.84683,2.0084,0.318955,0,1,1,1,1,1,0,1,1,1,1,0
356672197,13251241,45.2203776,-93.1453969,356672313,36.9485,-5.3502,-33.0358,0.000599753,-0.00102212,0.0,-13.404,-11.685,1.47876,-0.0598797,-0.00528227,0.271893,0.0,0.0,0.0,-2.57832,275.921,31.6998,-1.47876,2.48395,0.318409,0,1,1,1,1,1,0,1,1,1,1,0
356772193,13251241,45.2203776,-93.1453969,356772308,35.5329,-6.67336,-32.8192,0.000599753,-0.00102212,0.0,-13.3541,-12.0172,1.58692,-0.0598797,-0.00528227,0.271893,0.0,0.0,0.0,-2.57984,275.921,31.4832,-1.58692,2.54058,0.31706,0,1,1,1,1,1,0,1,1,1,1,0
356876625,13251241,45.2203776,-93.1453969,356876708,34.0819,-8.06263,-32.5936,0.000599753,-0.00102212,0.0,-13.3089,-12.3246,1.60721,-0.0598797,-0.00528227,0.271893,0.0,0.0,0.0,-2.58982,275.921,31.2575,-1.60721,2.59857,0.315828,0,1,1,1,1,1,0,1,1,1,1,0
356976827,13251241,45.2203776,-93.1453969,356976911,32.6947,-9.43181,-32.3839,0.000599753,-0.00102212,0.0,-13.2567,-12.6239,1.48735,-0.0598797,-0.00528227,0.271893,0.0,0.0,0.0,-2.59182,275.921,31.0479,-1.48735,2.65615,0.314416,0,1,1,1,1,1,0,1,1,1,1,0
357076387,13251241,45.2203776,-93.1453969,357076470,31.3265,-10.8131,-32.194,0.000599753,-0.00102212,0.0,-13.1818,-12.8907,1.48378,-0.0598797,-0.00528227,0.271893,0.0,0.0,0.0,-2.59141,275.921,30.858,-1.48378,2.7132,0.316464,0,1,1,1,1,1,0,1,1,1,1,0
357178703,13251241,45.2203776,-93.1453969,357178790,29.9357,-12.2745,-31.9865,0.000599753,-0.00102212,0.0,-13.0848,-13.1307,1.42285,-0.0598797,-0.00528227,0.271893,0.0,0.0,0.0,-2.58079,275.921,30.6504,-1.42285,2.78352,0.313276,0,1,1,1,1,1,0,1,1,1,1,0
357281818,13251241,45.2203776,-93.1453969,357281901,28.5378,-13.7834,-31.805,0.000599753,-0.00102212,0.0,-12.9136,-13.3902,1.0125,-0.0598797,-0.00528227,0.271893,0.0,0.0,0.0,-2.55967,275.921,30.469,-1.0125,2.84174,0.315238,0,1,1,1,1,1,0,1,1,1,1,0
357382337,13251241,45.2203776,-93.1453969,357382482,27.1973,-15.32,-31.6521,0.000599753,-0.00102212,0.0,-12.7146,-13.6386,0.500872,-0.0598797,-0.00528227,0.271893,0.0,0.0,0.0,-2.5351,275.921,30.316,-0.500872,2.91083,0.315223,0,1,1,1,1,1,0,1,1,1,1,0
357482674,13251241,45.2203776,-93.1453969,357482757,25.8885,-16.8732,-31.5555,0.000599753,-0.00102212,0.0,-12.4724,-13.8619,-0.0126718,-0.0598797,-0.00528227,0.271893,0.0,0.0,0.0,-2.50991,275.921,30.2194,0.0126718,2.98044,0.311518,0,1,1,1,1,1,0,1,1,1,1,0
357583376,13251241,45.2203776,-93.1453969,357583468,24.5849,-18.4999,-31.4969,0.000599753,-0.00102212,0.0,-12.1834,-14.0674,-0.525421,-0.0598797,-0.00528227,0.271893,0.0,0.0,0.0,-2.48613,275.921,30.1609,0.525421,3.04059,0.313495,0,1,1,1,1,1,0,1,1,1,1,0
357687977,13251241,45.2203776,-93.1453969,357688069,23.2804,-20.2376,-31.4732,0.000599753,-0.00102212,0.0,-11.8451,-14.2601,-1.0973,-0.0598797,-0.00528227,0.271893,0.0,0.0,0.0,-2.46652,275.921,30.1371,1.0973,3.11079,0.313293,0,1,1,1,1,1,0,1,1,1,1,0
357787349,13251241,45.2203776,-93.1453969,357787436,22.0766,-21.8761,-31.5229,0.000599753,-0.00102212,0.0,-11.4995,-14.3922,-1.56448,-0.0598797,-0.00528227,0.271893,0.0,0.0,0.0,-2.44924,275.921,30.1869,1.56448,3.16743,0.311002,0,1,1,1,1,1,0,1,1,1,1,0
357891966,13251241,45.2203776,-93.1453969,357892064,20.8659,-23.6282,-31.6184,0.000599753,-0.00102212,0.0,-11.0649,-14.5377,-2.12798,-0.0598797,-0.00528227,0.271893,0.0,0.0,0.0,-2.4288,275.921,30.2823,2.12798,3.23998,0.310967,0,1,1,1,1,1,0,1,1,1,1,0
357992126,13251241,45.2203776,-93.1453969,357992209,19.7548,-25.3116,-31.7657,0.000599753,-0.00102212,0.0,-10.6606,-14.6799,-2.43943,-0.0598797,-0.00528227,0.271893,0.0,0.0,0.0,-2.41221,275.921,30.4297,2.43943,3.31499,0.311235,0,1,1,1,1,1,0,1,1,1,1,0
358093506,13251241,45.2203776,-93.1453969,358093589,18.6747,-27.0243,-31.9454,0.000599753,-0.00102212,0.0,-10.2541,-14.814,-2.6632,-0.0598797,-0.00528227,0.271893,0.0,0.0,0.0,-2.39937,275.921,30.6094,2.6632,3.37883,0.309844,0,1,1,1,1,1,0,1,1,1,1,0
358193601,13251241,45.2203776,-93.1453969,358193684,17.6619,-28.737,-32.1477,0.000599753,-0.00102212,0.0,-9.8057,-14.929,-2.9853,-0.0598797,-0.00528227,0.271893,0.0,0.0,0.0,-2.38975,275.921,30.8117,2.9853,3.45194,0.309753,0,1,1,1,1,1,0,1,1,1,1,0
358297475,13251241,45.2203776,-93.1453969,358297587,16.6643,-30.4804,-32.4097,0.000599753,-0.00102212,0.0,-9.35403,-14.9991,-3.26005,-0.0598797,-0.00528227,0.271893,0.0,0.0,0.0,-2.38171,275.921,31.0736,3.26005,3.52063,0.309012,0,1,1,1,1,1,0,1,1,1,1,0
358397003,13251241,45.2203776,-93.1453969,358397099,15.7568,-32.1436,-32.6993,0.000599753,-0.00102212,0.0,-8.89805,-15.0397,-3.54514,-0.0598797,-0.00528227,0.271893,0.0,0.0,0.0,-2.37141,275.921,31.3632,3.54514,3.58241,0.307329,0,1,1,1,1,1,0,1,1,1,1,0
358497611,13251241,45.2203776,-93.1453969,358497698,14.8977,-33.7817,-33.0272,0.000599753,-0.00102212,0.0,-8.44235,-15.0786,-3.77163,-0.0598797,-0.00528227,0.271893,0.0,0.0,0.0,-2.35899,275.921,31.6912,3.77163,3.65333,0.30689,0,1,1,1,1,1,0,1,1,1,1,0
358598742,13251241,45.2203776,-93.1453969,358598824,14.0781,-35.4414,-33.3851,0.000599753,-0.00102212,0.0,-7.97481,-15.1051,-3.97992,-0.0598797,-0.00528227,0.271893,0.0,0.0,0.0,-2.34912,275.921,32.049,3.97992,3.71846,0.305716,0,1,1,1,1,1,0,1,1,1,1,0
358703341,13251241,45.2203776,-93.1453969,358703432,13.2997,-37.1524,-33.778,0.000599753,-0.00102212,0.0,-7.46197,-15.1081,-4.27744,-0.0598797,-0.00528227,0.271893,0.0,0.0,0.0,-2.33746,275.921,32.4419,4.27744,3.79574,0.306155,0,1,1,1,1,1,0,1,1,1,1,0
358802781,13251241,45.2203776,-93.1453969,358802864,12.601,-38.772,-34.1894,0.000599753,-0.00102212,0.0,-6.99514,-15.0828,-4.50247,-0.0598797,-0.00528227,0.271893,0.0,0.0,0.0,-2.32566,275.921,32.8533,4.50247,3.86526,0.305603,0,1,1,1,1,1,0,1,1,1,1,0
358906503,13251241,45.2203776,-93.1453969,358906603,11.9276,-40.442,-34.646,0.000599753,-0.00102212,0.0,-6.51577,-15.0188,-4.73594,-0.0598797,-0.00528227,0.271893,0.0,0.0,0.0,-2.31267,275.921,33.31,4.73594,3.93039,0.307766,0,1,1,1,1,1,0,1,1,1,1,0
359003841,13251241,45.2203776,-93.1453969,359003945,11.3546,-41.9997,-35.0894,0.000599753,-0.00102212,0.0,-6.06537,-14.9505,-4.92734,-0.0598797,-0.00528227,0.271893,0.0,0.0,0.0,-2.29797,275.921,33.7533,4.92734,3.99569,0.306744,0,1,1,1,1,1,0,1,1,1,1,0
359108840,13251241,45.2203776,-93.1453969,359108940,10.7806,-43.6596,-35.5927,0.000599753,-0.00102212,0.0,-5.60693,-14.8761,-5.06605,-0.0598797,-0.00528227,0.271893,0.0,0.0,0.0,-2.28465,275.921,34.2567,5.06605,4.07028,0.307024,0,1,1,1,1,1,0,1,1,1,1,0
359208177,13251241,45.2203776,-93.1453969,359208276,10.2799,-45.2338,-36.0842,0.000599753,-0.00102212,0.0,-5.2177,-14.8083,-5.11789,-0.0598797,-0.00528227,0.271893,0.0,0.0,0.0,-2.27661,275.921,34.7481,5.11789,4.13542,0.306123,0,1,1,1,1,1,0,1,1,1,1,0
359313083,13251241,45.2203776,-93.1453969,359313186,9.79435,-46.8447,-36.6083,0.000599753,-0.00102212,0.0,-4.83205,-14.7048,-5.2463,-0.0598797,-0.00528227,0.271893,0.0,0.0,0.0,-2.27369,275.921,35.2722,5.2463,4.20779,0.306222,0,1,1,1,1,1,0,1,1,1,1,0
359412388,13251241,45.2203776,-93.1453969,359412488,9.3654,-48.38,-37.1221,0.000599753,-0.00102212,0.0,-4.55889,-14.6289,-5.20084,-0.0598797,-0.00528227,0.271893,0.0,0.0,0.0,-2.26475,275.921,35.7861,5.20084,4.27247,0.305404,0,1,1,1,1,1,0,1,1,1,1,0
359513833,13251241,45.2203776,-93.1453969,359513962,8.96719,-49.94,-37.6354,0.000599753,-0.00102212,0.0,-4.23753,-14.5447,-5.25811,-0.0598797,-0.00528227,0.271893,0.0,0.0,0.0,-2.24842,275.921,36.2994,5.25811,4.34639,0.305887,0,1,1,1,1,1,0,1,1,1,1,0
359614433,13251241,45.2203776,-93.1453969,359614537,8.60677,-51.4564,-38.1563,0.000599753,-0.00102212,0.0,-3.93504,-14.5047,-5.23804,-0.0598797,-0.00528227,0.271893,0.0,0.0,0.0,-2.22898,275.921,36.8202,5.23804,4.42011,0.306412,0,1,1,1,1,1,0,1,1,1,1,0
359717761,13251241,45.2203776,-93.1453969,359717861,8.23659,-52.9996,-38.6876,0.000599753,-0.00102212,0.0,-3.70452,-14.5146,-5.04149,-0.0598797,-0.00528227,0.271893,0.0,0.0,0.0,-2.21115,275.921,37.3516,5.04149,4.49177,0.306745,0,1,1,1,1,1,0,1,1,1,1,0
359818463,13251241,45.2203776,-93.1453969,359818559,7.92411,-54.4968,-39.1934,0.000599753,-0.00102212,0.0,-3.33619,-14.5161,-5.20983,-0.0598797,-0.00528227,0.271893,0.0,0.0,0.0,-2.18622,275.921,37.8574,5.20983,4.56493,0.307312,0,1,1,1,1,1,0,1,1,1,1,0
359918214,13251241,45.2203776,-93.1453969,359918297,7.61787,-55.9513,-39.7318,0.000599753,-0.00102212,0.0,-2.93917,-14.589,-5.32039,-0.0598797,-0.00528227,0.271893,0.0,0.0,0.0,-2.16665,275.921,38.3957,5.32039,4.62829,0.306683,0,1,1,1,1,1,0,1,1,1,1,0
360023588,13251241,45.2203776,-93.1453969,360023672,7.34861,-57.5038,-40.286,0.000599753,-0.00102212,0.0,-2.70514,-14.7251,-5.07266,-0.0598797,-0.00528227,0.271893,0.0,0.0,0.0,-2.17087,275.921,38.9499,5.07266,4.69767,0.306867,0,1,1,1,1,1,0,1,1,1,1,0
360123083,13251241,45.2203776,-93.1453969,360123166,7.10612,-58.9951,-40.7797,0.000599753,-0.00102212,0.0,-2.57884,-14.8545,-4.74881,-0.0598797,-0.00528227,0.271893,0.0,0.0,0.0,-2.17499,275.921,39.4436,4.74881,4.75592,0.308625,0,1,1,1,1,1,0,1,1,1,1,0
360222684,13251241,45.2203776,-93.1453969,360222768,6.84698,-60.4776,-41.2386,0.000599753,-0.00102212,0.0,-2.6154,-15.0416,-4.1088,-0.0598797,-0.00528227,0.271893,0.0,0.0,0.0,-2.17219,275.921,39.9025,4.1088,4.82344,0.305787,0,1,1,1,1,1,0,1,1,1,1,0
360326798,13251241,45.2203776,-93.1453969,360326882,-25.867,28.7995,-41.7061,-31.7141,90.094,0.0,-12.3887,-5.14896,-4.25156,-9.75101,10.0644,-0.698269,0.0,0.0,0.0,-2.16191,275.921,40.3701,4.25156,2.67152,0.286799,0,1,1,1,1,2,0,2,2,1,1,0
360426640,13251241,45.2203776,-93.1453969,360426736,-27.499,28.6917,-42.1637,-31.7141,90.094,0.0,-12.366,-5.30286,-3.87109,-9.75101,10.0644,-0.698269,0.0,0.0,0.0,-2.14161,275.921,40.8276,3.87109,2.70823,0.286145,0,1,1,1,1,2,0,2,2,1,1,0
360530659,13251241,45.2203776,-93.1453969,360530742,-29.5081,28.8027,-42.6326,-31.7141,90.094,0.0,-12.3026,-5.50169,-3.53706,-9.75101,10.0644,-0.698269,0.0,0.0,0.0,-2.11496,275.921,41.2965,3.53706,1.83913,0.281513,0,1,1,1,1,2,0,2,2,1,1,0
360628250,13251241,45.2203776,-93.1453969,360628334,-31.2155,28.7207,-43.0354,-31.7141,90.094,0.0,-12.2137,-5.7128,-3.25002,-9.75101,10.0644,-0.698269,0.0,0.0,0.0,-2.09661,275.921,41.6994,3.25002,1.86096,0.280481,0,1,1,1,1,2,0,2,2,1,1,0
360732969,13251241,45.2203776,-93.1453969,360733061,-32.9321,28.4592,-43.4325,-31.7141,90.094,0.0,-12.1344,-5.94698,-2.9344,-9.75101,10.0644,-0.698269,0.0,0.0,0.0,-2.086,275.921,42.0964,2.9344,1.46887,0.278026,0,1,1,1,1,2,0,2,2,1,1,0
360832129,13251241,45.2203776,-93.1453969,360832252,-34.4016,28.0437,-43.7658,-31.7141,90.094,0.0,-12.0429,-6.17524,-2.69515,-9.75101,10.0644,-0.698269,0.0,0.0,0.0,-2.07954,275.921,42.4298,2.69515,1.48415,0.276774,0,1,1,1,1,2,0,2,2,1,1,0
360936258,13251241,45.2203776,-93.1453969,360936346,-35.8776,27.5344,-44.0981,-31.7141,90.094,0.0,-11.9129,-6.40561,-2.67072,-9.75101,10.0644,-0.698269,0.0,0.0,0.0,-2.0739,275.921,42.7621,2.67072,1.26292,0.274518,0,1,1,1,1,2,0,2,2,1,1,0
361036161,13251241,45.2203776,-93.1453969,361036249,-37.2309,26.9845,-44.4234,-31.7141,90.094,0.0,-11.7896,-6.61748,-2.71798,-9.75101,10.0644,-0.698269,0.0,0.0,0.0,-2.0715,275.921,43.0874,2.71798,1.27675,0.274134,0,1,1,1,1,2,0,2,2,1,1,0
361137759,13251241,45.2203776,-93.1453969,361137843,-38.5893,26.3708,-44.7515,-31.7141,90.094,0.0,-11.7004,-6.82145,-2.71135,-9.75101,10.0644,-0.698269,0.0,0.0,0.0,-2.06831,275.921,43.4155,2.71135,1.1284,0.272241,0,1,1,1,1,2,0,2,2,1,1,0
361238478,13251241,45.2203776,-93.1453969,361238562,-39.8964,25.7301,-45.0574,-31.7141,90.094,0.0,-11.6444,-7.01673,-2.56442,-9.75101,10.0644,-0.698269,0.0,0.0,0.0,-2.06227,275.921,43.7214,2.56442,1.1415,0.272742,0,1,1,1,1,2,0,2,2,1,1,0
361341781,13251241,45.2203776,-93.1453969,361341864,-41.2448,25.0324,-45.367,-31.7141,90.094,0.0,-11.5236,-7.20906,-2.66014,-9.75101,10.0644,-0.698269,0.0,0.0,0.0,-2.04491,275.921,44.031,2.66014,1.03169,0.270568,0,1,1,1,1,2,0,2,2,1,1,0
361443190,13251241,45.2203776,-93.1453969,361443274,-42.5271,24.3366,-45.668,-31.7141,90.094,0.0,-11.4274,-7.39917,-2.59498,-9.75101,10.0644,-0.698269,0.0,0.0,0.0,-2.02597,275.921,44.3319,2.59498,0.950029,0.269583,0,1,1,1,1,2,0,2,2,1,1,0
361541835,13251241,45.2203776,-93.1453969,361541918,-43.7872,23.6023,-45.9544,-31.7141,90.094,0.0,-11.3077,-7.58045,-2.59598,-9.75101,10.0644,-0.698269,0.0,0.0,0.0,-2.00994,275.921,44.6183,2.59598,0.957106,0.267884,0,1,1,1,1,2,0,2,2,1,1,0
361643916,13251241,45.2203776,-93.1453969,361644000,-45.0424,22.8383,-46.2479,-31.7141,90.094,0.0,-11.1924,-7.72578,-2.62081,-9.75101,10.0644,-0.698269,0.0,0.0,0.0,-1.99485,275.921,44.9118,2.62081,0.96726,0.268169,0,1,1,1,1,2,0,2,2,1,1,0
361747366,13251241,45.2203776,-93.1453969,361747489,-46.3211,22.033,-46.5422,-31.7141,90.094,0.0,-11.1235,-7.86177,-2.65919,-9.75101,10.0644,-0.698269,0.0,0.0,0.0,-1.98934,275.921,45.2061,2.65919,0.899166,0.266209,0,1,1,1,1,2,0,2,2,1,1,0
361847382,13251241,45.2203776,-93.1453969,361847466,-47.539,21.2472,-46.8335,-31.7141,90.094,0.0,-11.0997,-7.93682,-2.78347,-9.75101,10.0644,-0.698269,0.0,0.0,0.0,-1.9961,275.921,45.4974,2.78347,0.908154,0.266076,0,1,1,1,1,2,0,2,2,1,1,0
361951363,13251241,45.2203776,-93.1453969,361951455,-48.8194,20.4188,-47.1603,-31.7141,90.094,0.0,-11.164,-7.91794,-3.08199,-9.75101,10.0644,-0.698269,0.0,0.0,0.0,-2.01283,275.921,45.8243,3.08199,0.85152,0.264267,0,1,1,1,1,2,0,2,2,1,1,0
362051391,13251241,45.2203776,-93.1453969,362051474,-50.0379,19.6281,-47.4991,-31.7141,90.094,0.0,-11.3089,-7.80249,-3.39705,-9.75101,10.0644,-0.698269,0.0,0.0,0.0,-2.04261,275.921,46.1631,3.39705,0.861085,0.26485,0,1,1,1,1,2,0,2,2,1,1,0
362152946,13251241,45.2203776,-93.1453969,362153036,-51.3235,18.8604,-47.897,-31.7141,90.094,0.0,-11.577,-7.55107,-3.84839,-9.75101,10.0644,-0.698269,0.0,0.0,0.0,-2.07747,275.921,46.561,3.84839,0.814116,0.264214,0,1,1,1,1,2,0,2,2,1,1,0
362252179,13251241,45.2203776,-93.1453969,362252376,-52.5749,18.1223,-48.3132,-31.7141,90.094,0.0,-11.8353,-7.29607,-4.0767,-9.75101,10.0644,-0.698269,0.0,0.0,0.0,-2.12024,275.921,46.9772,4.0767,0.821561,0.263244,0,1,1,1,1,2,0,2,2,1,1,0
362357058,13251241,45.2203776,-93.1453969,362357148,-53.9258,17.4096,-48.7845,-31.7141,90.094,0.0,-12.211,-6.90252,-4.34019,-9.75101,10.0644,-0.698269,0.0,0.0,0.0,-2.17251,275.921,47.4485,4.34019,0.780807,0.262462,0,1,1,1,1,2,0,2,2,1,1,0
362456210,13251241,45.2203776,-93.1453969,362456301,-55.229,16.7618,-49.2607,-31.7141,90.094,0.0,-12.6573,-6.37287,-4.74644,-9.75101,10.0644,-0.698269,0.0,0.0,0.0,-2.22254,275.921,47.9247,4.74644,0.788224,0.263798,0,1,1,1,1,2,0,2,2,1,1,0
362560206,13251241,45.2203776,-93.1453969,362560295,-56.6649,16.1919,-49.8002,-31.7141,90.094,0.0,-13.1855,-5.74323,-5.00503,-9.75101,10.0644,-0.698269,0.0,0.0,0.0,-2.28103,275.921,48.4641,5.00503,0.752819,0.263261,0,1,1,1,1,2,0,2,2,1,1,0
362661675,13251241,45.2203776,-93.1453969,362661867,-58.0731,15.6961,-50.328,-31.7141,90.094,0.0,-13.6924,-5.16635,-5.06516,-9.75101,10.0644,-0.698269,0.0,0.0,0.0,-2.33635,275.921,48.992,5.06516,0.72217,0.262388,0,1,1,1,1,2,0,2,2,1,1,0
362761858,13251241,45.2203776,-93.1453969,362761947,-59.5456,15.2726,-50.8593,-31.7141,90.094,0.0,-14.2253,-4.55621,-5.00224,-9.75101,10.0644,-0.698269,0.0,0.0,0.0,-2.39537,275.921,49.5233,5.00224,0.729995,0.261974,0,1,1,1,1,2,0,2,2,1,1,0
362862049,13251241,45.2203776,-93.1453969,362862243,-61.0343,14.9069,-51.373,-31.7141,90.094,0.0,-14.798,-3.85379,-4.95675,-9.75101,10.0644,-0.698269,0.0,0.0,0.0,-2.46117,275.921,50.0369,4.95675,0.739616,0.262349,0,1,1,1,1,2,0,2,2,1,1,0
362965810,13251241,45.2203776,-93.1453969,362965900,-62.6174,14.665,-51.8981,-31.7141,90.094,0.0,-15.363,-3.05798,-4.82728,-9.75101,10.0644,-0.698269,0.0,0.0,0.0,-2.53516,275.921,50.562,4.82728,0.711717,0.261633,0,1,1,1,1,2,0,2,2,1,1,0
363066010,13251241,45.2203776,-93.1453969,363066200,-64.178,14.4994,-52.3844,-31.7141,90.094,0.0,-15.8932,-2.25484,-4.65776,-9.75101,10.0644,-0.698269,0.0,0.0,0.0,-2.61191,275.921,51.0484,4.65776,0.686423,0.260592,0,1,1,1,1,2,0,2,2,1,1,0
363166414,13251241,45.2203776,-93.1453969,363166505,-65.7584,14.4571,-52.8469,-31.7141,90.094,0.0,-16.3505,-1.42293,-4.43349,-9.75101,10.0644,-0.698269,0.0,0.0,0.0,-2.69921,275.921,51.5109,4.43349,0.694969,0.260178,0,1,1,1,1,2,0,2,2,1,1,0
363267312,13251241,45.2203776,-93.1453969,363267396,-67.4031,14.4843,-53.2964,-31.7141,90.094,0.0,-16.8146,-0.419484,-4.23999,-9.75101,10.0644,-0.698269,0.0,0.0,0.0,-2.8045,275.921,51.9603,4.23999,0.670995,0.258869,0,1,1,1,1,2,0,2,2,1,1,0
363371411,13251241,45.2203776,-93.1453969,363371495,-69.0584,14.6894,-53.7329,-31.7141,90.094,0.0,-17.1818,0.743186,-3.98754,-9.75101,10.0644,-0.698269,0.0,0.0,0.0,-2.9208,275.921,52.3969,3.98754,0.680544,0.259015,0,1,1,1,1,2,0,2,2,1,1,0
363471351,13251241,45.2203776,-93.1453969,363471473,-70.6748,14.9922,-54.1237,-31.7141,90.094,0.0,-17.4587,1.90185,-3.66826,-9.75101,10.0644,-0.698269,0.0,0.0,0.0,-3.03143,275.921,52.7876,3.66826,0.65859,0.257927,0,1,1,1,1,2,0,2,2,1,1,0
363575905,13251241,45.2203776,-93.1453969,363575987,-72.3151,15.5075,-54.4878,-31.7141,90.094,0.0,-17.633,3.34965,-3.32115,-9.75101,10.0644,-0.698269,0.0,0.0,0.0,3.13887,275.921,53.1517,3.32115,0.669339,0.258647,0,1,1,1,1,2,0,2,2,1,1,0
363676912,13251241,45.2203776,-93.1453969,363677003,-73.9358,16.1252,-54.8029,-31.7141,90.094,0.0,-17.7093,4.84717,-2.9378,-9.75101,10.0644,-0.698269,0.0,0.0,0.0,3.03163,275.921,53.4668,2.9378,0.649147,0.258017,0,1,1,1,1,2,0,2,2,1,1,0
363776992,13251241,45.2203776,-93.1453969,363777086,-75.482,16.8964,-55.0591,-31.7141,90.094,0.0,-17.6252,6.21174,-2.49303,-9.75101,10.0644,-0.698269,0.0,0.0,0.0,2.92589,275.921,53.723,2.49303,0.658777,0.257816,0,1,1,1,1,2,0,2,2,1,1,0
363877948,13251241,45.2203776,-93.1453969,363878039,-77.0305,17.7804,-55.2639,-31.7141,90.094,0.0,-17.4133,7.67435,-2.13444,-9.75101,10.0644,-0.698269,0.0,0.0,0.0,2.81576,275.921,53.9278,2.13444,0.646813,0.258753,0,1,1,1,1,2,0,2,2,1,1,0
363981966,13251241,45.2203776,-93.1453969,363982068,-78.668,18.797,-55.4454,-31.7141,90.094,0.0,-17.0738,9.19606,-1.79212,-9.75101,10.0644,-0.698269,0.0,0.0,0.0,2.69671,275.921,54.1094,1.79212,0.658267,0.258824,0,1,1,1,1,2,0,2,2,1,1,0
364081316,13251241,45.2203776,-93.1453969,364081483,-80.2167,19.8968,-55.5849,-31.7141,90.094,0.0,-16.6351,10.5559,-1.43383,-9.75101,10.0644,-0.698269,0.0,0.0,0.0,2.58352,275.921,54.2488,1.43383,0.645543,0.260814,0,1,1,1,1,2,0,2,2,1,1,0
364182605,13251241,45.2203776,-93.1453969,364182742,-81.7495,21.1293,-55.6873,-31.7141,90.094,0.0,-16.1003,11.8067,-1.05814,-9.75101,10.0644,-0.698269,0.0,0.0,0.0,2.46899,275.921,54.3513,1.05814,0.659676,0.26159,0,1,1,1,1,2,0,2,2,1,1,0
364283131,13251241,45.2203776,-93.1453969,364283219,-83.2021,22.4557,-55.7542,-31.7141,90.094,0.0,-15.3536,13.1275,-0.771489,-9.75101,10.0644,-0.698269,0.0,0.0,0.0,2.35252,275.921,54.4181,0.771489,0.650001,0.262542,0,1,1,1,1,2,0,2,2,1,1,0
364387402,13251241,45.2203776,-93.1453969,364387501,-84.6101,23.9687,-55.7883,-31.7141,90.094,0.0,-14.439,14.4114,-0.500741,-9.75101,10.0644,-0.698269,0.0,0.0,0.0,2.2343,275.921,54.4522,0.500741,0.66754,0.261835,0,1,1,1,1,2,0,2,2,1,1,0
364487088,13251241,45.2203776,-93.1453969,364487178,-85.8788,25.5266,-55.8002,-31.7141,90.094,0.0,-13.4496,15.5366,-0.283291,-9.75101,10.0644,-0.698269,0.0,0.0,0.0,2.12777,275.921,54.4642,0.283291,0.657926,0.264801,0,1,1,1,1,2,0,2,2,1,1,0
364590578,13251241,45.2203776,-93.1453969,364590707,-87.076,27.253,-55.7858,-31.7141,90.094,0.0,-12.4467,16.5126,0.00909145,-9.75101,10.0644,-0.698269,0.0,0.0,0.0,2.03171,275.921,54.4498,-0.00909145,0.676429,0.265982,0,1,1,1,1,2,0,2,2,1,1,0
364688104,13251241,45.2203776,-93.1453969,364688193,-88.0778,28.9621,-55.7384,-31.7141,90.094,0.0,-11.4635,17.3392,0.333558,-9.75101,10.0644,-0.698269,0.0,0.0,0.0,1.94044,275.921,54.4023,-0.333558,0.667996,0.266944,0,1,1,1,1,2,0,2,2,1,1,0
364793090,13251241,45.2203776,-93.1453969,364793183,-89.0317,30.8628,-55.6561,-31.7141,90.094,0.0,-10.3211,18.1356,0.698556,-9.75101,10.0644,-0.698269,0.0,0.0,0.0,1.83896,275.921,54.3201,-0.698556,0.689039,0.268448,0,1,1,1,1,2,0,2,2,1,1,0
364892223,13251241,45.2203776,-93.1453969,364892344,-89.7957,32.7627,-55.5417,-31.7141,90.094,0.0,-9.09637,18.817,1.04623,-9.75101,10.0644,-0.698269,0.0,0.0,0.0,1.74467,275.921,54.2057,-1.04623,0.682417,0.270146,0,1,1,1,1,2,0,2,2,1,1,0
364997023,13251241,45.2203776,-93.1453969,364997168,-90.4431,34.7999,-55.3839,-31.7141,90.094,0.0,-7.82174,19.397,1.45176,-9.75101,10.0644,-0.698269,0.0,0.0,0.0,1.65167,275.921,54.0479,-1.45176,0.706906,0.272276,0,1,1,1,1,2,0,2,2,1,1,0
365096836,13251241,45.2203776,-93.1453969,365096923,-90.8975,36.806,-55.1904,-31.7141,90.094,0.0,-6.56868,19.8546,1.82751,-9.75101,10.0644,-0.698269,0.0,0.0,0.0,1.56556,275.921,53.8543,-1.82751,0.700008,0.274022,0,1,1,1,1,2,0,2,2,1,1,0
365197810,13251241,45.2203776,-93.1453969,365197898,-91.1983,38.8795,-54.9565,-31.7141,90.094,0.0,-5.20171,20.2019,2.17071,-9.75101,10.0644,-0.698269,0.0,0.0,0.0,1.47517,275.921,53.6205,-2.17071,0.727878,0.276765,0,1,1,1,1,2,0,2,2,1,1,0
365297946,13251241,45.2203776,-93.1453969,365298057,-91.3045,40.9378,-54.6896,-31.7141,90.094,0.0,-3.65861,20.4343,2.43752,-9.75101,10.0644,-0.698269,0.0,0.0,0.0,1.38513,275.921,53.3535,-2.43752,0.720146,0.278576,0,1,1,1,1,2,0,2,2,1,1,0
365401840,13251241,45.2203776,-93.1453969,365401927,-91.2232,43.0819,-54.3873,-31.7141,90.094,0.0,-1.99738,20.5264,2.70663,-9.75101,10.0644,-0.698269,0.0,0.0,0.0,1.29423,275.921,53.0512,-2.70663,0.746028,0.282789,0,1,1,1,1,2,0,2,2,1,1,0
365501756,13251241,45.2203776,-93.1453969,365501843,-90.8447,45.125,-54.0652,-31.7141,90.094,0.0,-0.408502,20.474,2.9922,-9.75101,10.0644,-0.698269,0.0,0.0,0.0,1.21114,275.921,52.7292,-2.9922,0.740473,0.283017,0,1,1,1,1,2,0,2,2,1,1,0
365602495,13251241,45.2203776,-93.1453969,365602585,-90.3877,47.1471,-53.7179,-31.7141,90.094,0.0,1.02646,20.3305,3.3075,-9.75101,10.0644,-0.698269,0.0,0.0,0.0,1.13726,275.921,52.3819,-3.3075,0.769578,0.285124,0,1,1,1,1,2,0,2,2,1,1,0
365703377,13251241,45.2203776,-93.1453969,365703476,-89.7018,49.148,-53.3422,-31.7141,90.094,0.0,2.65272,20.0442,3.49756,-9.75101,10.0644,-0.698269,0.0,0.0,0.0,1.06075,275.921,52.0062,-3.49756,0.756455,0.288888,0,1,1,1,1,2,0,2,2,1,1,0
365807347,13251241,45.2203776,-93.1453969,365807436,-88.8474,51.145,-52.9425,-31.7141,90.094,0.0,4.20472,19.6397,3.66523,-9.75101,10.0644,-0.698269,0.0,0.0,0.0,0.96639,275.921,51.6064,-3.66523,0.788852,0.291878,0,1,1,1,1,2,0,2,2,1,1,0
365907519,13251241,45.2203776,-93.1453969,365907617,-87.779,52.9706,-52.5512,-31.7141,90.094,0.0,5.68501,19.0676,3.76304,-9.75101,10.0644,-0.698269,0.0,0.0,0.0,0.858803,275.921,51.2151,-3.76304,0.773974,0.292615,0,1,1,1,1,2,0,2,2,1,1,0
366011456,13251241,45.2203776,-93.1453969,366011545,-86.5296,54.778,-52.1525,-31.7141,90.094,0.0,7.41186,18.1861,3.62976,-9.75101,10.0644,-0.698269,0.0,0.0,0.0,0.74154,275.921,50.8165,-3.62976,0.806993,0.295516,0,1,1,1,1,2,0,2,2,1,1,0
366113027,13251241,45.2203776,-93.1453969,366113159,-84.9307,56.3447,-51.8037,-31.7141,90.094,0.0,9.25592,17.0102,3.30751,-9.75101,10.0644,-0.698269,0.0,0.0,0.0,0.629724,275.921,50.4677,-3.30751,0.795409,0.29814,0,1,1,1,1,2,0,2,2,1,1,0
366212970,13251241,45.2203776,-93.1453969,366213073,-83.338,57.7792,-51.5079,-31.7141,90.094,0.0,10.9496,15.6449,2.88161,-9.75101,10.0644,-0.698269,0.0,0.0,0.0,0.521782,275.921,50.1718,-2.88161,0.826282,0.29995,0,1,1,1,1,2,0,2,2,1,1,0
366313542,13251241,45.2203776,-93.1453969,366313634,-81.4389,58.9695,-51.2547,-31.7141,90.094,0.0,12.4883,14.1298,2.42941,-9.75101,10.0644,-0.698269,0.0,0.0,0.0,0.415628,275.921,49.9187,-2.42941,0.809267,0.301548,0,1,1,1,1,2,0,2,2,1,1,0
366416958,13251241,45.2203776,-93.1453969,366417049,-79.4853,60.0958,-51.0233,-31.7141,90.094,0.0,13.6818,12.648,2.03977,-9.75101,10.0644,-0.698269,0.0,0.0,0.0,0.305848,275.921,49.6873,-2.03977,0.838677,0.302649,0,1,1,1,1,2,0,2,2,1,1,0
366516913,13251241,45.2203776,-93.1453969,366517007,-77.3787,60.92,-50.8424,-31.7141,90.094,0.0,14.7529,10.9259,1.50155,-9.75101,10.0644,-0.698269,0.0,0.0,0.0,0.199772,275.921,49.5063,-1.50155,0.815597,0.302391,0,1,1,1,1,2,0,2,2,1,1,0
366617775,13251241,45.2203776,-93.1453969,366617856,-75.2454,61.5895,-50.7121,-31.7141,90.094,0.0,15.6193,9.05198,0.891771,-9.75101,10.0644,-0.698269,0.0,0.0,0.0,0.0999215,275.921,49.3761,-0.891771,0.846977,0.304319,0,1,1,1,1,2,0,2,2,1,1,0
366722265,13251241,45.2203776,-93.1453969,366722407,-72.8832,61.973,-50.6406,-31.7141,90.094,0.0,16.2394,7.31554,0.443441,-9.75101,10.0644,-0.698269,0.0,0.0,0.0,0.0120514,275.921,49.3046,-0.443441,0.82665,0.305841,0,1,1,1,1,2,0,2,2,1,1,0
366821835,13251241,45.2203776,-93.1453969,366821955,-70.6758,62.2027,-50.638,-31.7141,90.094,0.0,16.6695,5.40894,-0.420791,-9.75101,10.0644,-0.698269,0.0,0.0,0.0,-0.0737028,275.921,49.302,0.420791,0.857733,0.307787,0,1,1,1,1,2,0,2,2,1,1,0
366922465,13251241,45.2203776,-93.1453969,366922547,-68.3516,62.11,-50.7291,-31.7141,90.094,0.0,16.8654,3.57518,-1.19201,-9.75101,10.0644,-0.698269,0.0,0.0,0.0,-0.151255,275.921,49.393,1.19201,0.831904,0.307279,0,1,1,1,1,2,0,2,2,1,1,0
367025847,13251241,45.2203776,-93.1453969,367025932,-66.0875,61.9465,-50.8934,-31.7141,90.094,0.0,16.851,2.1986,-1.77799,-9.75101,10.0644,-0.698269,0.0,0.0,0.0,-0.227802,275.921,49.5574,1.77799,0.86087,0.308641,0,1,1,1,1,2,0,2,2,1,1,0
367126184,13251241,45.2203776,-93.1453969,367126266,-63.7858,61.4504,-51.1167,-31.7141,90.094,0.0,16.7026,0.992209,-2.39059,-9.75101,10.0644,-0.698269,0.0,0.0,0.0,-0.308298,275.921,49.7807,2.39059,0.838792,0.310131,0,1,1,1,1,2,0,2,2,1,1,0
367227073,13251241,45.2203776,-93.1453969,367227152,-61.6985,61.0224,-51.4054,-31.7141,90.094,0.0,16.3927,0.119883,-3.03297,-9.75101,10.0644,-0.698269,0.0,0.0,0.0,-0.375122,275.921,50.0694,3.03297,0.867308,0.311508,0,1,1,1,1,2,0,2,2,1,1,0
367327386,13251241,45.2203776,-93.1453969,367327477,-59.6187,60.376,-51.7923,-31.7141,90.094,0.0,15.935,-0.662997,-4.11885,-9.75101,10.0644,-0.698269,0.0,0.0,0.0,-0.420246,275.921,50.4563,4.11885,0.842018,0.311981,0,1,1,1,1,2,0,2,2,1,1,0
367431470,13251241,45.2203776,-93.1453969,367431552,-57.6567,59.7596,-52.3241,-31.7141,90.094,0.0,15.2596,-1.17963,-5.46102,-9.75101,10.0644,-0.698269,0.0,0.0,0.0,-0.454926,275.921,50.9881,5.46102,0.870366,0.313363,0,1,1,1,1,2,0,2,2,1,1,0
367531364,13251241,45.2203776,-93.1453969,367531446,-55.8221,58.9838,-52.9736,-31.7141,90.094,0.0,14.52,-1.48767,-6.48795,-9.75101,10.0644,-0.698269,0.0,0.0,0.0,-0.477025,275.921,51.6376,6.48795,0.843071,0.313036,0,1,1,1,1,2,0,2,2,1,1,0
367636012,13251241,45.2203776,-93.1453969,367636120,-54.0751,58.248,-53.7234,-31.7141,90.094,0.0,13.7321,-1.57586,-7.08375,-9.75101,10.0644,-0.698269,0.0,0.0,0.0,-0.472092,275.921,52.3873,7.08375,0.87509,0.315834,0,1,1,1,1,2,0,2,2,1,1,0
367737080,13251241,45.2203776,-93.1453969,367737188,-52.4731,57.4367,-54.4987,-31.7141,90.094,0.0,12.8948,-1.58215,-7.60089,-9.75101,10.0644,-0.698269,0.0,0.0,0.0,-0.452827,275.921,53.1626,7.60089,0.85235,0.317146,0,1,1,1,1,2,0,2,2,1,1,0
367836346,13251241,45.2203776,-93.1453969,367836491,-51.0686,56.8286,-55.313,-31.7141,90.094,0.0,12.015,-1.49447,-8.02301,-9.75101,10.0644,-0.698269,0.0,0.0,0.0,-0.425834,275.921,53.977,8.02301,0.87772,0.316502,0,1,1,1,1,2,0,2,2,1,1,0
367940217,13251241,45.2203776,-93.1453969,367940317,-49.9055,55.7574,-56.3416,-31.7141,90.094,0.0,11.0143,-1.59441,-8.24267,-9.75101,10.0644,-0.698269,0.0,0.0,0.0,-0.403872,275.921,55.0055,8.24267,0.813201,0.313512,0,1,1,1,1,2,0,2,2,1,1,0
368040195,13251241,45.2203776,-93.1453969,368040287,-48.9354,54.8137,-57.3409,-31.7141,90.094,0.0,10.0969,-1.61387,-8.28152,-9.75101,10.0644,-0.698269,0.0,0.0,0.0,-0.388132,275.921,56.0049,8.28152,0.841937,0.311678,0,1,1,1,1,2,0,2,2,1,1,0
368140193,13251241,45.2203776,-93.1453969,368140313,-48.1373,53.923,-58.3453,-31.7141,90.094,0.0,9.15766,-1.53265,-8.27221,-9.75101,10.0644,-0.698269,0.0,0.0,0.0,-0.375958,275.921,57.0093,8.27221,0.79014,0.306803,0,1,1,1,1,2,0,2,2,1,1,0
368244186,13251241,45.2203776,-93.1453969,368244277,-47.4421,53.0948,-59.3758,-31.7141,90.094,0.0,8.16832,-1.29981,-8.26735,-9.75101,10.0644,-0.698269,0.0,0.0,0.0,-0.364561,275.921,58.0397,8.26735,0.810718,0.309308,0,1,1,1,1,2,0,2,2,1,1,0
368344812,13251241,45.2203776,-93.1453969,368344919,-46.974,52.1889,-60.4105,-31.7141,90.094,0.0,7.22328,-1.0755,-8.19086,-9.75101,10.0644,-0.698269,0.0,0.0,0.0,-0.361945,275.921,59.0744,8.19086,0.772545,0.303081,0,1,1,1,1,2,0,2,2,1,1,0
368445860,13251241,45.2203776,-93.1453969,368445951,-46.4894,51.6312,-61.3639,-31.7141,90.094,0.0,6.4871,-0.776336,-7.9069,-9.75101,10.0644,-0.698269,0.0,0.0,0.0,-0.366216,275.921,60.0279,7.9069,0.79167,0.305283,0,1,1,1,1,2,0,2,2,1,1,0
368546499,13251241,45.2203776,-93.1453969,368546591,-46.1664,50.9282,-62.3125,-31.7141,90.094,0.0,5.77819,-0.554312,-7.55973,-9.75101,10.0644,-0.698269,0.0,0.0,0.0,-0.379622,275.921,60.9765,7.55973,0.757161,0.302602,0,1,1,1,1,2,0,2,2,1,1,0
368649834,13251241,45.2203776,-93.1453969,368649967,-45.8252,50.4534,-63.2003,-31.7141,90.094,0.0,5.20033,-0.32182,-7.07341,-9.75101,10.0644,-0.698269,0.0,0.0,0.0,-0.406574,275.921,61.8642,7.07341,0.727874,0.300416,0,1,1,1,1,2,0,2,2,1,1,0
368749797,13251241,45.2203776,-93.1453969,368749895,-45.5964,49.987,-64.0006,-31.7141,90.094,0.0,4.75017,-0.191609,-6.50568,-9.75101,10.0644,-0.698269,0.0,0.0,0.0,-0.432872,275.921,62.6646,6.50568,0.745148,0.299217,0,1,1,1,1,2,0,2,2,1,1,0
368850587,13251241,45.2203776,-93.1453969,368850689,-45.3672,49.6509,-64.7292,-31.7141,90.094,0.0,4.39941,-0.0751088,-5.88287,-9.75101,10.0644,-0.698269,0.0,0.0,0.0,-0.453178,275.921,63.3931,5.88287,0.766116,0.299444,0,1,1,1,1,2,0,2,2,1,1,0
368954541,13251241,45.2203776,-93.1453969,368954673,-45.1856,49.3136,-65.4093,-31.7141,90.094,0.0,4.00146,0.0479769,-5.28511,-9.75101,10.0644,-0.698269,0.0,0.0,0.0,-0.46586,275.921,64.0733,5.28511,0.735878,0.296892,0,1,1,1,1,2,0,2,2,1,1,0
369055183,13251241,45.2203776,-93.1453969,369055328,-45.0005,49.1066,-65.979,-31.7141,90.094,0.0,3.63665,0.19356,-4.7267,-9.75101,10.0644,-0.698269,0.0,0.0,0.0,-0.466295,275.921,64.643,4.7267,0.752894,0.295515,0,1,1,1,1,2,0,2,2,1,1,0
369155311,13251241,45.2203776,-93.1453969,369155409,-44.8967,48.8741,-66.4888,-31.7141,90.094,0.0,3.28207,0.299643,-4.14125,-9.75101,10.0644,-0.698269,0.0,0.0,0.0,-0.46141,275.921,65.1528,4.14125,0.72605,0.293383,0,1,1,1,1,2,0,2,2,1,1,0
369258691,13251241,45.2203776,-93.1453969,369258790,-44.7569,48.7481,-66.9316,-31.7141,90.094,0.0,2.95244,0.422356,-3.54075,-9.75101,10.0644,-0.698269,0.0,0.0,0.0,-0.44909,275.921,65.5956,3.54075,0.743831,0.295854,0,1,1,1,1,2,0,2,2,1,1,0
369358548,13251241,45.2203776,-93.1453969,369358707,-44.7163,48.624,-67.3025,-31.7141,90.094,0.0,2.63048,0.525649,-2.94343,-9.75101,10.0644,-0.698269,0.0,0.0,0.0,-0.43411,275.921,65.9664,2.94343,0.717497,0.293337,0,1,1,1,1,2,0,2,2,1,1,0
369463421,13251241,45.2203776,-93.1453969,369463525,-44.6777,48.5597,-67.6119,-31.7141,90.094,0.0,2.37441,0.611672,-2.26269,-9.75101,10.0644,-0.698269,0.0,0.0,0.0,-0.427779,275.921,66.2759,2.26269,0.694734,0.288791,0,1,1,1,1,2,0,2,2,1,1,0
369560183,13251241,45.2203776,-93.1453969,369560359,-44.6574,48.5319,-67.8325,-31.7141,90.094,0.0,2.19694,0.660325,-1.58308,-9.75101,10.0644,-0.698269,0.0,0.0,0.0,-0.436506,275.921,66.4965,1.58308,0.709468,0.290393,0,1,1,1,1,2,0,2,2,1,1,0
369664174,13251241,45.2203776,-93.1453969,369664317,-44.623,48.5435,-67.985,-31.7141,90.094,0.0,2.0598,0.690932,-0.847868,-9.75101,10.0644,-0.698269,0.0,0.0,0.0,-0.460073,275.921,66.649,0.847868,0.684705,0.28786,0,1,1,1,1,2,0,2,2,1,1,0
369764869,13251241,45.2203776,-93.1453969,369764968,-44.6582,48.5618,-68.0625,-31.7141,90.094,0.0,1.91525,0.719198,-0.161765,-9.75101,10.0644,-0.698269,0.0,0.0,0.0,-0.496903,275.921,66.7264,0.161765,0.699061,0.28654,0,1,1,1,1,2,0,2,2,1,1,0
369868148,13251241,45.2203776,-93.1453969,369868247,-44.6514,48.6172,-68.06,-31.7141,90.094,0.0,1.79284,0.751802,0.513911,-9.75101,10.0644,-0.698269,0.0,0.0,0.0,-0.544136,275.921,66.7239,-0.513911,0.674974,0.284289,0,1,1,1,1,2,0,2,2,1,1,0
369968240,13251241,45.2203776,-93.1453969,369968338,-44.6853,48.6693,-67.9975,-31.7141,90.094,0.0,1.67275,0.772139,1.11614,-9.75101,10.0644,-0.698269,0.0,0.0,0.0,-0.59198,275.921,66.6615,-1.11614,0.687835,0.285467,0,1,1,1,1,2,0,2,2,1,1,0
370069755,13251241,45.2203776,-93.1453969,370069837,-44.7319,48.7373,-67.8681,-31.7141,90.094,0.0,1.56535,0.770039,1.66882,-9.75101,10.0644,-0.698269,0.0,0.0,0.0,-0.635027,275.921,66.5321,-1.66882,0.672045,0.282347,0,1,1,1,1,2,0,2,2,1,1,0
370170442,13251241,45.2203776,-93.1453969,370170524,-44.7931,48.7937,-67.684,-31.7141,90.094,0.0,1.4976,0.704319,2.19543,-9.75101,10.0644,-0.698269,0.0,0.0,0.0,-0.665989,275.921,66.348,-2.19543,0.688832,0.28281,0,1,1,1,1,2,0,2,2,1,1,0
370274462,13251241,45.2203776,-93.1453969,370274583,-44.7898,48.8554,-67.4274,-31.7141,90.094,0.0,1.4956,0.542467,2.76173,-9.75101,10.0644,-0.698269,0.0,0.0,0.0,-0.679258,275.921,66.0913,-2.76173,0.671947,0.281365,0,1,1,1,1,2,0,2,2,1,1,0
370373711,13251241,45.2203776,-93.1453969,370373800,-44.7947,48.8782,-67.118,-31.7141,90.094,0.0,1.52458,0.309949,3.40478,-9.75101,10.0644,-0.698269,0.0,0.0,0.0,-0.669551,275.921,65.782,-3.40478,0.684583,0.279718,0,1,1,1,1,2,0,2,2,1,1,0
370474549,13251241,45.2203776,-93.1453969,370474659,-44.7677,48.8884,-66.7263,-31.7141,90.094,0.0,1.58339,0.0509416,4.18469,-9.75101,10.0644,-0.698269,0.0,0.0,0.0,-0.636071,275.921,65.3903,-4.18469,0.666959,0.278377,0,1,1,1,1,2,0,2,2,1,1,0
370578536,13251241,45.2203776,-93.1453969,370578641,-44.7467,48.8601,-66.2281,-31.7141,90.094,0.0,1.64966,-0.216422,5.10255,-9.75101,10.0644,-0.698269,0.0,0.0,0.0,-0.612205,275.921,64.8921,-5.10255,0.68051,0.280131,0,1,1,1,1,2,0,2,2,1,1,0
370679435,13251241,45.2203776,-93.1453969,370679540,-44.7244,48.8168,-65.6551,-31.7141,90.094,0.0,1.72707,-0.522051,6.00903,-9.75101,10.0644,-0.698269,0.0,0.0,0.0,-0.636363,275.921,64.319,-6.00903,0.663854,0.276761,0,1,1,1,1,2,0,2,2,1,1,0
370778557,13251241,45.2203776,-93.1453969,370778691,-44.6971,48.7365,-64.9947,-31.7141,90.094,0.0,1.82602,-0.986081,6.87762,-9.75101,10.0644,-0.698269,0.0,0.0,0.0,-0.724367,275.921,63.6586,-6.87762,0.677694,0.276129,0,1,1,1,1,2,0,2,2,1,1,0
370883367,13251241,45.2203776,-93.1453969,370883485,-44.6282,48.6087,-64.2202,-31.7141,90.094,0.0,1.92817,-1.57448,7.72801,-9.75101,10.0644,-0.698269,0.0,0.0,0.0,-0.875576,275.921,62.8841,-7.72801,0.658886,0.277186,0,1,1,1,1,2,0,2,2,1,1,0
370983189,13251241,45.2203776,-93.1453969,370983288,-44.58,48.4286,-63.3915,-31.7141,90.094,0.0,1.98602,-2.10907,8.50845,-9.75101,10.0644,-0.698269,0.0,0.0,0.0,-1.03129,275.921,62.0555,-8.50845,0.671806,0.276247,0,1,1,1,1,2,0,2,2,1,1,0
371087305,13251241,45.2203776,-93.1453969,371087407,-44.504,48.1885,-62.4472,-31.7141,90.094,0.0,2.07902,-2.68877,9.243,-9.75101,10.0644,-0.698269,0.0,0.0,0.0,-1.16033,275.921,61.1111,-9.243,0.653344,0.274914,0,1,1,1,1,2,0,2,2,1,1,0
371184836,13251241,45.2203776,-93.1453969,371184933,-44.4417,47.9022,-61.49,-31.7141,90.094,0.0,2.24493,-3.30923,9.8174,-9.75101,10.0644,-0.698269,0.0,0.0,0.0,-1.23028,275.921,60.154,-9.8174,0.666411,0.274279,0,1,1,1,1,2,0,2,2,1,1,0
371290263,13251241,45.2203776,-93.1453969,371290360,-44.3276,47.533,-60.4144,-31.7141,90.094,0.0,2.55233,-3.97879,10.3193,-9.75101,10.0644,-0.698269,0.0,0.0,0.0,-1.25033,275.921,59.0784,-10.3193,0.647869,0.272869,0,1,1,1,1,2,0,2,2,1,1,0
371388193,13251241,45.2203776,-93.1453969,371388289,-44.2001,47.1142,-59.3357,-31.7141,90.094,0.0,2.97362,-4.59474,10.7043,-9.75101,10.0644,-0.698269,0.0,0.0,0.0,-1.22343,275.921,57.9996,-10.7043,0.660278,0.272062,0,1,1,1,1,2,0,2,2,1,1,0
371494352,13251241,45.2203776,-93.1453969,371494496,-43.9967,46.6185,-58.1764,-31.7141,90.094,0.0,3.61456,-5.19741,10.9872,-9.75101,10.0644,-0.698269,0.0,0.0,0.0,-1.15173,275.921,56.8404,-10.9872,0.641939,0.270935,0,1,1,1,1,2,0,2,2,1,1,0
371593803,13251241,45.2203776,-93.1453969,371593909,-43.7245,46.0704,-57.025,-31.7141,90.094,0.0,4.47324,-5.76507,11.109,-9.75101,10.0644,-0.698269,0.0,0.0,0.0,-1.0537,275.921,55.6889,-11.109,0.652362,0.269287,0,1,1,1,1,2,0,2,2,1,1,0
371697744,13251241,45.2203776,-93.1453969,371697849,-43.3723,45.4544,-55.8335,-31.7141,90.094,0.0,5.42296,-6.19895,11.1271,-9.75101,10.0644,-0.698269,0.0,0.0,0.0,-0.931026,275.921,54.4975,-11.1271,0.635349,0.268984,0,1,1,1,1,2,0,2,2,1,1,0
371797773,13251241,45.2203776,-93.1453969,371797909,-42.9268,44.8166,-54.7008,-31.7141,90.094,0.0,6.51427,-6.56676,10.8373,-9.75101,10.0644,-0.698269,0.0,0.0,0.0,-0.800527,275.921,53.3647,-10.8373,0.64805,0.268752,0,1,1,1,1,2,0,2,2,1,1,0
371903954,13251241,45.2203776,-93.1453969,371904077,-42.3548,44.1207,-53.5653,-31.7141,90.094,0.0,7.79775,-6.83767,10.1548,-9.75101,10.0644,-0.698269,0.0,0.0,0.0,-0.667382,275.921,52.2292,-10.1548,0.62949,0.267787,0,1,1,1,1,2,0,2,2,1,1,0
372006225,13251241,45.2203776,-93.1453969,372006346,-41.6197,43.4046,-52.5209,-31.7141,90.094,0.0,9.2017,-6.94451,9.07277,-9.75101,10.0644,-0.698269,0.0,0.0,0.0,-0.556665,275.921,51.1849,-9.07277,0.64111,0.267148,0,1,1,1,1,2,0,2,2,1,1,0
372107391,13251241,45.2203776,-93.1453969,372107472,-40.7836,42.6988,-51.6133,-31.7141,90.094,0.0,10.4982,-6.82496,7.77561,-9.75101,10.0644,-0.698269,0.0,0.0,0.0,-0.469319,275.921,50.2772,-7.77561,0.621748,0.265431,0,1,1,1,1,2,0,2,2,1,1,0
372207432,13251241,45.2203776,-93.1453969,372207507,-39.8296,42.0263,-50.8406,-31.7141,90.094,0.0,11.6191,-6.43164,6.48771,-9.75101,10.0644,-0.698269,0.0,0.0,0.0,-0.399871,275.921,49.5045,-6.48771,0.634374,0.265565,0,1,1,1,1,2,0,2,2,1,1,0
372312097,13251241,45.2203776,-93.1453969,372312179,-38.7559,41.3779,-50.1436,-31.7141,90.094,0.0,12.4797,-5.82648,5.52716,-9.75101,10.0644,-0.698269,0.0,0.0,0.0,-0.346776,275.921,48.8075,-5.52716,0.617807,0.265321,0,1,1,1,1,2,0,2,2,1,1,0
372411399,13251241,45.2203776,-93.1453969,372411485,-37.6164,40.8238,-49.5623,-31.7141,90.094,0.0,13.1591,-5.09089,4.8321,-9.75101,10.0644,-0.698269,0.0,0.0,0.0,-0.308325,275.921,48.2263,-4.8321,0.628768,0.264598,0,1,1,1,1,2,0,2,2,1,1,0
372512110,13251241,45.2203776,-93.1453969,372512192,-36.4461,40.3325,-49.0241,-31.7141,90.094,0.0,13.7348,-4.23881,4.18602,-9.75101,10.0644,-0.698269,0.0,0.0,0.0,-0.271913,275.921,47.688,-4.18602,0.613189,0.264127,0,1,1,1,1,2,0,2,2,1,1,0
372613087,13251241,45.2203776,-93.1453969,372613169,-35.1564,39.9293,-48.5546,-31.7141,90.094,0.0,14.2309,-3.27078,3.55669,-9.75101,10.0644,-0.698269,0.0,0.0,0.0,-0.238074,275.921,47.2185,-3.55669,0.627093,0.26512,0,1,1,1,1,2,0,2,2,1,1,0
372717412,13251241,45.2203776,-93.1453969,372717503,-33.8269,39.6023,-48.1384,-31.7141,90.094,0.0,14.5478,-2.33196,3.03992,-9.75101,10.0644,-0.698269,0.0,0.0,0.0,-0.2082,275.921,46.8024,-3.03992,0.612197,0.264877,0,1,1,1,1,2,0,2,2,1,1,0
372816893,13251241,45.2203776,-93.1453969,372816975,-32.474,39.3889,-47.8038,-31.7141,90.094,0.0,14.7492,-1.46494,2.53619,-9.75101,10.0644,-0.698269,0.0,0.0,0.0,-0.178182,275.921,46.4677,-2.53619,0.623529,0.266682,0,1,1,1,1,2,0,2,2,1,1,0
372916988,13251241,45.2203776,-93.1453969,372917085,-31.1691,39.2435,-47.5109,-31.7141,90.094,0.0,14.8168,-0.611362,1.91293,-9.75101,10.0644,-0.698269,0.0,0.0,0.0,-0.137799,275.921,46.1749,-1.91293,0.609654,0.264753,0,1,1,1,1,2,0,2,2,1,1,0
373021956,13251241,45.2203776,-93.1453969,373022057,-29.7609,39.1932,-47.2829,-31.7141,90.094,0.0,14.7761,0.224792,1.37627,-9.75101,10.0644,-0.698269,0.0,0.0,0.0,-0.0827999,275.921,45.9468,-1.37627,0.623218,0.265384,0,1,1,1,1,2,0,2,2,1,1,0
373121806,13251241,45.2203776,-93.1453969,373121937,-28.4351,39.2307,-47.1181,-31.7141,90.094,0.0,14.6277,1.04972,0.88763,-9.75101,10.0644,-0.698269,0.0,0.0,0.0,-0.0189795,275.921,45.7821,-0.88763,0.607952,0.267075,0,1,1,1,1,2,0,2,2,1,1,0
373221991,13251241,45.2203776,-93.1453969,373222088,-27.1056,39.3638,-47.0136,-31.7141,90.094,0.0,14.421,1.97052,0.199095,-9.75101,10.0644,-0.698269,0.0,0.0,0.0,0.0422619,275.921,45.6776,-0.199095,0.620137,0.266841,0,1,1,1,1,2,0,2,2,1,1,0
373325794,13251241,45.2203776,-93.1453969,373325875,-25.7823,39.5975,-46.9811,-31.7141,90.094,0.0,14.0808,2.9029,-0.641258,-9.75101,10.0644,-0.698269,0.0,0.0,0.0,0.0994109,275.921,45.6451,0.641258,0.606906,0.267222,0,1,1,1,1,2,0,2,2,1,1,0
373426688,13251241,45.2203776,-93.1453969,373426770,-24.5304,39.9138,-47.0259,-31.7141,90.094,0.0,13.6657,3.6942,-1.28785,-9.75101,10.0644,-0.698269,0.0,0.0,0.0,0.15606,275.921,45.6898,1.28785,0.624106,0.267151,0,1,1,1,1,2,0,2,2,1,1,0
373525945,13251241,45.2203776,-93.1453969,373526036,-23.327,40.311,-47.1311,-31.7141,90.094,0.0,13.1801,4.42795,-1.72695,-9.75101,10.0644,-0.698269,0.0,0.0,0.0,0.216466,275.921,45.795,1.72695,0.607593,0.268219,0,1,1,1,1,2,0,2,2,1,1,0
373630408,13251241,45.2203776,-93.1453969,373630490,-22.0944,40.8096,-47.2783,-31.7141,90.094,0.0,12.6197,5.19573,-2.10277,-9.75101,10.0644,-0.698269,0.0,0.0,0.0,0.279124,275.921,45.9423,2.10277,0.622959,0.269283,0,1,1,1,1,2,0,2,2,1,1,0
373731436,13251241,45.2203776,-93.1453969,373731518,-20.9681,41.3756,-47.4476,-31.7141,90.094,0.0,12.0181,5.88314,-2.31398,-9.75101,10.0644,-0.698269,0.0,0.0,0.0,0.335977,275.921,46.1116,2.31398,0.607557,0.268585,0,1,1,1,1,2,0,2,2,1,1,0
373832244,13251241,45.2203776,-93.1453969,373832398,-19.9069,42.0011,-47.6342,-31.7141,90.094,0.0,11.3833,6.49228,-2.45888,-9.75101,10.0644,-0.698269,0.0,0.0,0.0,0.38332,275.921,46.2982,2.45888,0.624552,0.270227,0,1,1,1,1,2,0,2,2,1,1,0
373935402,13251241,45.2203776,-93.1453969,373935507,-18.889,42.7394,-47.8504,-31.7141,90.094,0.0,10.6555,7.02263,-2.69605,-9.75101,10.0644,-0.698269,0.0,0.0,0.0,0.43171,275.921,46.5143,2.69605,0.607987,0.269197,0,1,1,1,1,2,0,2,2,1,1,0
374035358,13251241,45.2203776,-93.1453969,374035519,-17.9597,43.496,-48.0913,-31.7141,90.094,0.0,9.97984,7.33318,-2.95657,-9.75101,10.0644,-0.698269,0.0,0.0,0.0,0.478032,275.921,46.7553,2.95657,0.624619,0.270452,0,1,1,1,1,2,0,2,2,1,1,0
374136366,13251241,45.2203776,-93.1453969,374136448,-17.1185,44.2693,-48.3607,-31.7141,90.094,0.0,9.36436,7.42816,-3.17917,-9.75101,10.0644,-0.698269,0.0,0.0,0.0,0.525368,275.921,47.0246,3.17917,0.608005,0.272,0,1,1,1,1,2,0,2,2,1,1,0
374240189,13251241,45.2203776,-93.1453969,374240271,-16.2584,45.0757,-48.6722,-31.7141,90.094,0.0,8.83449,7.36028,-3.304,-9.75101,10.0644,-0.698269,0.0,0.0,0.0,0.580423,275.921,47.3362,3.304,0.624175,0.272848,0,1,1,1,1,2,0,2,2,1,1,0
374340199,13251241,45.2203776,-93.1453969,374340298,-15.5242,45.8305,-48.9814,-31.7141,90.094,0.0,8.33409,7.20804,-3.43437,-9.75101,10.0644,-0.698269,0.0,0.0,0.0,0.632429,275.921,47.6454,3.43437,0.609065,0.27028,0,1,1,1,1,2,0,2,2,1,1,0
374440263,13251241,45.2203776,-93.1453969,374440361,-14.7931,46.5608,-49.3188,-31.7141,90.094,0.0,7.83225,7.03706,-3.57018,-9.75101,10.0644,-0.698269,0.0,0.0,0.0,0.678669,275.921,47.9827,3.57018,0.622998,0.272348,0,1,1,1,1,2,0,2,2,1,1,0
374544199,13251241,45.2203776,-93.1453969,374544299,-14.1106,47.302,-49.6874,-31.7141,90.094,0.0,7.25871,6.89911,-3.66069,-9.75101,10.0644,-0.698269,0.0,0.0,0.0,0.713943,275.921,48.3514,3.66069,0.610852,0.27204,0,1,1,1,1,2,0,2,2,1,1,0
374644204,13251241,45.2203776,-93.1453969,374644309,-13.4964,48.0038,-50.0687,-31.7141,90.094,0.0,6.63219,6.80813,-3.79325,-9.75101,10.0644,-0.698269,0.0,0.0,0.0,0.740265,275.921,48.7327,3.79325,0.629717,0.271203,0,1,1,1,1,2,0,2,2,1,1,0
374744234,13251241,45.2203776,-93.1453969,374744332,-12.9429,48.6911,-50.4598,-31.7141,90.094,0.0,6.02287,6.7954,-3.77284,-9.75101,10.0644,-0.698269,0.0,0.0,0.0,0.755954,275.921,49.1237,3.77284,0.619476,0.273595,0,1,1,1,1,2,0,2,2,1,1,0
374846279,13251241,45.2203776,-93.1453969,374846387,-12.4157,49.392,-50.8555,-31.7141,90.094,0.0,5.44679,6.85478,-3.65422,-9.75101,10.0644,-0.698269,0.0,0.0,0.0,0.764574,275.921,49.5195,3.65422,0.635884,0.273619,0,1,1,1,1,2,0,2,2,1,1,0
374950320,13251241,45.2203776,-93.1453969,374950434,-11.9457,50.119,-51.2474,-31.7141,90.094,0.0,4.89549,6.97167,-3.42058,-9.75101,10.0644,-0.698269,0.0,0.0,0.0,0.769724,275.921,49.9113,3.42058,0.627092,0.274017,0,1,1,1,1,2,0,2,2,1,1,0
375049761,13251241,45.2203776,-93.1453969,375049867,-11.5138,50.8305,-51.5945,-31.7141,90.094,0.0,4.38588,7.11416,-3.13353,-9.75101,10.0644,-0.698269,0.0,0.0,0.0,0.772928,275.921,50.2585,3.13353,0.642336,0.273126,0,1,1,1,1,2,0,2,2,1,1,0
375150647,13251241,45.2203776,-93.1453969,375150752,-11.1569,51.5541,-51.9136,-31.7141,90.094,0.0,3.88568,7.26255,-2.78428,-9.75101,10.0644,-0.698269,0.0,0.0,0.0,0.773586,275.921,50.5775,2.78428,0.632847,0.273382,0,1,1,1,1,2,0,2,2,1,1,0
375253783,13251241,45.2203776,-93.1453969,375253920,-10.8117,52.3222,-52.2046,-31.7141,90.094,0.0,3.42214,7.40135,-2.36371,-9.75101,10.0644,-0.698269,0.0,0.0,0.0,0.774247,275.921,50.8686,2.36371,0.650442,0.275827,0,1,1,1,1,2,0,2,2,1,1,0
375355383,13251241,45.2203776,-93.1453969,375355488,-10.5317,53.0878,-52.446,-31.7141,90.094,0.0,3.01664,7.53811,-1.93339,-9.75101,10.0644,-0.698269,0.0,0.0,0.0,0.77749,275.921,51.11,1.93339,0.64138,0.274013,0,1,1,1,1,2,0,2,2,1,1,0
375454518,13251241,45.2203776,-93.1453969,375454627,-10.2694,53.8571,-52.6412,-31.7141,90.094,0.0,2.66178,7.66089,-1.48765,-9.75101,10.0644,-0.698269,0.0,0.0,0.0,0.790905,275.921,51.3051,1.48765,0.657134,0.275476,0,1,1,1,1,2,0,2,2,1,1,0
375558558,13251241,45.2203776,-93.1453969,375558663,-10.0529,54.6839,-52.8053,-31.7141,90.094,0.0,2.34074,7.79398,-0.991799,-9.75101,10.0644,-0.698269,0.0,0.0,0.0,0.814608,275.921,51.4692,0.991799,0.646487,0.27337,0,1,1,1,1,2,0,2,2,1,1,0
375658533,13251241,45.2203776,-93.1453969,375658638,-9.85714,55.4871,-52.9123,-31.7141,90.094,0.0,2.05575,7.92093,-0.51615,-9.75101,10.0644,-0.698269,0.0,0.0,0.0,0.842479,275.921,51.5763,0.51615,0.633873,0.273368,0,1,1,1,1,2,0,2,2,1,1,0
375763424,13251241,45.2203776,-93.1453969,375763530,-9.6889,56.3402,-52.9821,-31.7141,90.094,0.0,1.79264,8.07319,-0.0565226,-9.75101,10.0644,-0.698269,0.0,0.0,0.0,0.87487,275.921,51.646,0.0565226,0.652801,0.273738,0,1,1,1,1,2,0,2,2,1,1,0
375864264,13251241,45.2203776,-93.1453969,375864353,-9.53863,57.1684,-53.0098,-31.7141,90.094,0.0,1.56811,8.21734,0.346121,-9.75101,10.0644,-0.698269,0.0,0.0,0.0,0.914645,275.921,51.6737,-0.346121,0.637087,0.273021,0,1,1,1,1,2,0,2,2,1,1,0
375963487,13251241,45.2203776,-93.1453969,375963576,-9.42741,58.0122,-53.0058,-31.7141,90.094,0.0,1.34419,8.36581,0.679865,-9.75101,10.0644,-0.698269,0.0,0.0,0.0,0.9653,275.921,51.6697,-0.679865,0.655108,0.273066,0,1,1,1,1,2,0,2,2,1,1,0
376064833,13251241,45.2203776,-93.1453969,376064915,-9.32363,58.8692,-52.9766,-31.7141,90.094,0.0,1.14845,8.49835,0.986931,-9.75101,10.0644,-0.698269,0.0,0.0,0.0,1.01928,275.921,51.6405,-0.986931,0.675412,0.273704,0,1,1,1,1,2,0,2,2,1,1,0
376168194,13251241,45.2203776,-93.1453969,376168319,-9.23341,59.7655,-52.8961,-31.7141,90.094,0.0,1.0126,8.62715,1.35105,-9.75101,10.0644,-0.698269,0.0,0.0,0.0,1.07067,275.921,51.56,-1.35105,0.653809,0.274478,0,1,1,1,1,2,0,2,2,1,1,0
376269618,13251241,45.2203776,-93.1453969,376269700,-9.15479,60.6411,-52.7801,-31.7141,90.094,0.0,0.945086,8.76393,1.74693,-9.75101,10.0644,-0.698269,0.0,0.0,0.0,1.11458,275.921,51.4441,-1.74693,0.635025,0.273598,0,1,1,1,1,2,0,2,2,1,1,0
376368311,13251241,45.2203776,-93.1453969,376368394,-9.10125,61.5309,-52.6163,-31.7141,90.094,0.0,0.912236,8.92773,2.13411,-9.75101,10.0644,-0.698269,0.0,0.0,0.0,1.15491,275.921,51.2802,-2.13411,0.65151,0.2733,0,1,1,1,1,2,0,2,2,1,1,0
376471640,13251241,45.2203776,-93.1453969,376471821,-9.03787,62.4555,-52.4087,-31.7141,90.094,0.0,0.892541,9.12692,2.50099,-9.75101,10.0644,-0.698269,0.0,0.0,0.0,1.19161,275.921,51.0726,-2.50099,0.6337,0.272884,0,1,1,1,1,2,0,2,2,1,1,0
376573772,13251241,45.2203776,-93.1453969,376573853,-8.99423,63.4427,-52.1578,-31.7141,90.094,0.0,0.862944,9.37902,2.85251,-9.75101,10.0644,-0.698269,0.0,0.0,0.0,1.22199,275.921,50.8217,-2.85251,0.649763,0.272562,0,1,1,1,1,2,0,2,2,1,1,0
376673804,13251241,45.2203776,-93.1453969,376673884,-8.94653,64.4157,-51.8971,-31.7141,90.094,0.0,0.827095,9.65291,3.1364,-9.75101,10.0644,-0.698269,0.0,0.0,0.0,1.24446,275.921,50.561,-3.1364,0.633266,0.27233,0,1,1,1,1,2,0,2,2,1,1,0
